submission_id,question,startDate,mentioned_file,DP,question_file,unmentioned_element,experiment_id,picture2,det_competitor,competitor,target_position,time_spent,option4,det_target,option2,option3,option1,condition,item_id,endTime,item_type,complete_answer,target,age,response,comments,picture1,education,QUD,answer_file,expected_response,languages,prolific_id,item_name,unmentioned_file,gender,picture3,trial_number,startTime,chunked_answer,picture4,timeSpent,mentioned_element,reaction_times,pictureChoices,trial_name,incomplete_answer,list
400,Kann man hiermit im Schnee spielen?,Thu Nov 14 2019 18:44:06 GMT+0100 (Mitteleuropäische Normalzeit),NA,NA,q_f_snowboard.wav,NA,9,images/christmaslights.jpg,NA,NA,NA,32706,snowboard,NA,christmaslights,acousticguitar02,spinningtoy,filler,252,1573754476784,filler,"Ja, das ist ein Snowboard.",NA,59,snowboard,Danke für die Umfrage. Es hat wirklich Spaß gemacht.,images/spinningtoy.jpg,Hochschulabschluss,,f_snowboard.wav,snowboard,deutsch,5be6b18edcdffd00012742ec,snowboard,NA,weiblich,images/acousticguitar02.jpg,1,1573753446422,"Ja, | das ist | ein Snowboard.",images/snowboard.jpg,17.1727,NA,11958|7819,snowboard|snowboard|snowboard,poor_folks_visual_world_training,"Ja, das ist ein ...",9
400,Magst du auch das große Rad?,Thu Nov 14 2019 18:44:06 GMT+0100 (Mitteleuropäische Normalzeit),NA,NA,q_f_wagenrad.wav,NA,9,images/menwashroomsign.jpg,NA,NA,NA,27128,wagonwheel,NA,menwashroomsign,aloe01,kidpicnictable,filler,232,1573754476784,filler,"Ja, das ist ein großes Wagenrad. ",NA,59,wagonwheel,Danke für die Umfrage. Es hat wirklich Spaß gemacht.,images/kidpicnictable.jpg,Hochschulabschluss,,f_wagenrad.wav,wagonwheel,deutsch,5be6b18edcdffd00012742ec,wagon-wheel,NA,weiblich,images/aloe01.jpg,2,1573753446422,"Ja, | das ist | ein großes Wagenrad. ",images/wagonwheel.jpg,17.1727,NA,7546|5472,wagonwheel|wagonwheel|wagonwheel,poor_folks_visual_world_training,"Ja, das ist ein großes ...",6
400,Ist das eine Türglocke?,Thu Nov 14 2019 18:44:06 GMT+0100 (Mitteleuropäische Normalzeit),NA,NA,q_f_klingel.wav,NA,9,images/cakeplatter.jpg,NA,NA,NA,24810,powerline,NA,cakeplatter,callbell,skippingrope,filler,245,1573754476784,filler,"Nein, das ist eine Klingel.",NA,59,callbell,Danke für die Umfrage. Es hat wirklich Spaß gemacht.,images/skippingrope.jpg,Hochschulabschluss,,f_klingel.wav,callbell,deutsch,5be6b18edcdffd00012742ec,call-bell,NA,weiblich,images/callbell.jpg,1,1573753446422,"Nein, | das ist | eine Klingel.",images/powerline.jpg,17.1727,NA,6779|7061,callbell|callbell|callbell,poor_folks_visual_world,"Nein, das ist eine ...",8
400,Ist das ein Bild von einer Flöte?,Thu Nov 14 2019 18:44:06 GMT+0100 (Mitteleuropäische Normalzeit),recorder04.jpg,actually,q_r_floete.wav,clarinet,9,images/bench01.jpg,die,Klarinette,1,27173,Klarinette,die,bench01,Flöte,flag,reliable,153,1573754476784,critical,Das ist eigentlich ein Bild von einer Klarinette.,Flöte,59,Klarinette,Danke für die Umfrage. Es hat wirklich Spaß gemacht.,images/flag.jpg,Hochschulabschluss,,r_e_klarinette.wav,Klarinette,deutsch,5be6b18edcdffd00012742ec,recorder-clarinet,clarinet.jpg,weiblich,images/recorder04.jpg,2,1573753446422,Das ist | eigentlich ein Bild von | einer Klarinette.,images/clarinet.jpg,17.1727,recorder,5755|6909,Flöte|Flöte|Klarinette,poor_folks_visual_world,Das ist eigentlich ein Bild von einer ...,6
400,Was ist das mit dem Schabel für ein Tier?,Thu Nov 14 2019 18:44:06 GMT+0100 (Mitteleuropäische Normalzeit),NA,NA,q_f_schnabeltier.wav,NA,9,images/platypus.jpg,NA,NA,NA,23815,crocodile,NA,platypus,greathornowl,cougar,filler,205,1573754476784,filler,Das ist ein Schnabeltier.,NA,59,platypus,Danke für die Umfrage. Es hat wirklich Spaß gemacht.,images/cougar.jpg,Hochschulabschluss,,f_schnabeltier.wav,platypus,deutsch,5be6b18edcdffd00012742ec,platypus,NA,weiblich,images/greathornowl.jpg,3,1573753446422,Das ist | ein Schnabeltier.,images/crocodile.jpg,17.1727,NA,6465,platypus|platypus,poor_folks_visual_world,Das ist ein ...,1
400,Findest du das Tier mit der dicken Nase auch lustig?,Thu Nov 14 2019 18:44:06 GMT+0100 (Mitteleuropäische Normalzeit),NA,NA,q_f_affe.wav,NA,9,images/giraffe.jpg,NA,NA,NA,25870,saintbernard,NA,giraffe,monarchbutterfly,proboscismonkey,filler,210,1573754476784,filler,"Ja, das ist ein lustiger Affee.",NA,59,proboscismonkey,Danke für die Umfrage. Es hat wirklich Spaß gemacht.,images/proboscismonkey.jpg,Hochschulabschluss,,f_affe.wav,proboscismonkey,deutsch,5be6b18edcdffd00012742ec,proboscis-monkey,NA,weiblich,images/monarchbutterfly.jpg,4,1573753446422,"Ja, | das ist | ein lustiger Affee.",images/saintbernard.jpg,17.1727,NA,7248|6559,proboscismonkey|proboscismonkey|proboscismonkey,poor_folks_visual_world,"Ja, das ist ein lustiger ...",2
400,Ist das ein Bild von einer Sonnenbrille?,Thu Nov 14 2019 18:44:06 GMT+0100 (Mitteleuropäische Normalzeit),sunglasses04.jpg,indeed,q_u_sonnenbrille.wav,swim-goggles,9,images/sunglasses04.jpg,die,Schwimmbrille,4,29156,mug01,die,Sonnenbrille,Schwimmbrille,violin,unreliable,188,1573754476784,critical,Das ist tatsächlich ein Bild von einer Schwimmbrille.,Sonnenbrille,59,Schwimmbrille,Danke für die Umfrage. Es hat wirklich Spaß gemacht.,images/violin.jpg,Hochschulabschluss,,u_t_schwimmbrille.wav,Schwimmbrille,deutsch,5be6b18edcdffd00012742ec,sunglasses-swim-goggles,swimgoggles.jpg,weiblich,images/swimgoggles.jpg,5,1573753446422,Das ist | tatsächlich ein Bild von | einer Schwimmbrille.,images/mug01.jpg,17.1727,sunglasses,13617|5636,Schwimmbrille|Sonnenbrille|Schwimmbrille,poor_folks_visual_world,Das ist tatsächlich ein Bild von einer ...,9
400,Wie heißt das große gelbe Ding?,Thu Nov 14 2019 18:44:06 GMT+0100 (Mitteleuropäische Normalzeit),NA,NA,q_f_bulldozer.wav,NA,9,images/bust.jpg,NA,NA,NA,13821,bulldozer,NA,bust,handbrush02,fireplace,filler,256,1573754476784,filler,Das ist ein Bulldozer.,NA,59,bulldozer,Danke für die Umfrage. Es hat wirklich Spaß gemacht.,images/fireplace.jpg,Hochschulabschluss,,f_bulldozer.wav,bulldozer,deutsch,5be6b18edcdffd00012742ec,bulldozer,NA,weiblich,images/handbrush02.jpg,6,1573753446422,Das ist | ein Bulldozer.,images/bulldozer.jpg,17.1727,NA,5823,bulldozer|bulldozer,poor_folks_visual_world,Das ist ein ...,10
400,Ist das ein Bild von einem Klo?,Thu Nov 14 2019 18:44:06 GMT+0100 (Mitteleuropäische Normalzeit),toilet.jpg,actually,q_r_klo.wav,sink,9,images/sink.jpg,das,Waschbecken,3,36685,gardenutilityvehicle,das,Waschbecken,pouch01b,Klo,reliable,143,1573754476784,critical,Das ist eigentlich ein Bild von einem Waschbecken.,Klo,59,Waschbecken,Danke für die Umfrage. Es hat wirklich Spaß gemacht.,images/toilet.jpg,Hochschulabschluss,,r_e_waschbecken.wav,Waschbecken,deutsch,5be6b18edcdffd00012742ec,toilet-sink,sink.jpg,weiblich,images/pouch01b.jpg,7,1573753446422,Das ist | eigentlich ein Bild von | einem Waschbecken.,images/gardenutilityvehicle.jpg,17.1727,toilet,13989|4949,Klo|Klo|Waschbecken,poor_folks_visual_world,Das ist eigentlich ein Bild von einem ...,5
400,Ist das eine Blume?,Thu Nov 14 2019 18:44:06 GMT+0100 (Mitteleuropäische Normalzeit),NA,NA,q_f_artischoke.wav,NA,9,images/waterfountain02.jpg,NA,NA,NA,27827,atm,NA,waterfountain02,pumpkin,artichoke01b,filler,238,1573754476784,filler,"Nein, das ist eine Artischocke, man kann sie kochen.",NA,59,artichoke01b,Danke für die Umfrage. Es hat wirklich Spaß gemacht.,images/artichoke01b.jpg,Hochschulabschluss,,f_artischoke.wav,artichoke01b,deutsch,5be6b18edcdffd00012742ec,artichoke,NA,weiblich,images/pumpkin.jpg,8,1573753446422,"Nein, | das ist | eine Artischocke, | man kann sie kochen.",images/atm.jpg,17.1727,NA,7398|5889|6089,artichoke01b|artichoke01b|artichoke01b|artichoke01b,poor_folks_visual_world,"Nein, das ist eine ..., man kann sie kochen.",7
400,Ist das ein Spülbecken?,Thu Nov 14 2019 18:44:06 GMT+0100 (Mitteleuropäische Normalzeit),NA,NA,q_f_wasserhahn.wav,NA,9,images/steamroller.jpg,NA,NA,NA,24378,flowerwreath,NA,steamroller,faucet,pin,filler,257,1573754476784,filler,"Nein, das ist ein Wasserhahn.",NA,59,pin,Danke für die Umfrage. Es hat wirklich Spaß gemacht.,images/pin.jpg,Hochschulabschluss,,f_wasserhahn.wav,faucet,deutsch,5be6b18edcdffd00012742ec,faucet,NA,weiblich,images/faucet.jpg,9,1573753446422,"Nein, | das ist | ein Wasserhahn.",images/flowerwreath.jpg,17.1727,NA,5208|4587,pin|pin|pin,poor_folks_visual_world,"Nein, das ist ein ...",10
400,Ist das ein Bild von einem Klemmbrett?,Thu Nov 14 2019 18:44:06 GMT+0100 (Mitteleuropäische Normalzeit),clipboard.jpg,indeed,q_u_klemmbrett.wav,binder,9,images/binder03b.jpg,der,Ordner,4,23140,nailpolish03b,das,Ordner,Klemmbrett,stuffedanimal02b,unreliable,200,1573754476784,critical,Das ist tatsächlich ein Bild von einem Ordner.,Klemmbrett,59,Ordner,Danke für die Umfrage. Es hat wirklich Spaß gemacht.,images/stuffedanimal02b.jpg,Hochschulabschluss,,u_t_ordner.wav,Ordner,deutsch,5be6b18edcdffd00012742ec,clipboard-binder,binder03b.jpg,weiblich,images/clipboard.jpg,10,1573753446422,Das ist | tatsächlich ein Bild von | einem Ordner.,images/nailpolish03b.jpg,17.1727,clipboard,4991|10162,Klemmbrett|Klemmbrett|Ordner,poor_folks_visual_world,Das ist tatsächlich ein Bild von einem ...,10
400,Ist das ein Bild von einem Schal?,Thu Nov 14 2019 18:44:06 GMT+0100 (Mitteleuropäische Normalzeit),scarf.jpg,actually,q_u_schal.wav,rug,9,images/flask.jpg,der,Teppich,2,28960,Teppich,der,flask,marker01a,Schal,unreliable,86,1573754476784,critical,Das ist eigentlich ein Bild von einem Schal.,Schal,59,Schal,Danke für die Umfrage. Es hat wirklich Spaß gemacht.,images/scarf.jpg,Hochschulabschluss,,u_e_schal.wav,Schal,deutsch,5be6b18edcdffd00012742ec,scarf-rug,rug01.jpg,weiblich,images/marker01a.jpg,11,1573753446422,Das ist | eigentlich ein Bild von | einem Schal.,images/rug01.jpg,17.1727,scarf,5370|11118,Teppich|Teppich|Schal,poor_folks_visual_world,Das ist eigentlich ein Bild von einem ...,9
400,Was ist das für ein Tier mit den langen Hörnern?,Thu Nov 14 2019 18:44:06 GMT+0100 (Mitteleuropäische Normalzeit),NA,NA,q_f_nyala.wav,NA,9,images/nyala.jpg,NA,NA,NA,26577,dalmatian,NA,nyala,stuffedpuffin,heron01,filler,214,1573754476784,filler,Ich glaube das ist ein Nyala.,NA,59,nyala,Danke für die Umfrage. Es hat wirklich Spaß gemacht.,images/heron01.jpg,Hochschulabschluss,,f_nyala.wav,nyala,deutsch,5be6b18edcdffd00012742ec,nyala,NA,weiblich,images/stuffedpuffin.jpg,12,1573753446422,"Ich glaube, | das ist | ein Nyala.",images/dalmatian.jpg,17.1727,NA,6281|11573,nyala|nyala|nyala,poor_folks_visual_world,Ich glaube das ist ein ...,3
400,Ist das ein Pferd?,Thu Nov 14 2019 18:44:06 GMT+0100 (Mitteleuropäische Normalzeit),NA,NA,q_f_elch.wav,NA,9,images/swordfish.jpg,NA,NA,NA,65874,moose,NA,swordfish,muskox,pigeon,filler,203,1573754476784,filler,"Nein, das ist eine Elch.",NA,59,muskox,Danke für die Umfrage. Es hat wirklich Spaß gemacht.,images/pigeon.jpg,Hochschulabschluss,,f_elch.wav,moose,deutsch,5be6b18edcdffd00012742ec,moose,NA,weiblich,images/muskox.jpg,13,1573753446422,"Nein, | das ist | eine Elch.",images/moose.jpg,17.1727,NA,13430|11063,muskox|muskox|muskox,poor_folks_visual_world,"Nein, das ist eine ...",1
400,Ist das ein Bild von einer Zwiebel?,Thu Nov 14 2019 18:44:06 GMT+0100 (Mitteleuropäische Normalzeit),onion.jpg,actually,q_u_zwiebel.wav,potatoe,9,images/canister.jpg,die,Kartoffel,1,46750,Kartoffel,die,canister,Zwiebel,toothbrush03b,unreliable,89,1573754476784,critical,Das ist eigentlich ein Bild von einer Zwiebel.,Zwiebel,59,Zwiebel,Danke für die Umfrage. Es hat wirklich Spaß gemacht.,images/toothbrush03b.jpg,Hochschulabschluss,,u_e_zwiebel.wav,Zwiebel,deutsch,5be6b18edcdffd00012742ec,onion-potatoe,potato02b.jpg,weiblich,images/onion.jpg,14,1573753446422,Das ist | eigentlich ein Bild von | einer Zwiebel.,images/potato02b.jpg,17.1727,onion,19289|5108,Zwiebel|Zwiebel|Zwiebel,poor_folks_visual_world,Das ist eigentlich ein Bild von einer ...,9
400,Wie heißt das bunte Ding?,Thu Nov 14 2019 18:44:06 GMT+0100 (Mitteleuropäische Normalzeit),NA,NA,q_f_zauberwuerfel.wav,NA,9,images/securitycamera.jpg,NA,NA,NA,72404,apron,NA,securitycamera,rubikcube,dishrack,filler,233,1573754476784,filler,Das ist ein Zauberwürfel.,NA,59,rubikcube,Danke für die Umfrage. Es hat wirklich Spaß gemacht.,images/dishrack.jpg,Hochschulabschluss,,f_zauberwuerfel.wav,rubikcube,deutsch,5be6b18edcdffd00012742ec,Rubiks-cube,NA,weiblich,images/rubikcube.jpg,15,1573753446422,Das ist | ein Zauberwürfel.,images/apron.jpg,17.1727,NA,47727,rubikcube|rubikcube,poor_folks_visual_world,Das ist ein ...,6
400,"Ist das gelbe Ding, das, wovon wir Honig bekommen?",Thu Nov 14 2019 18:44:06 GMT+0100 (Mitteleuropäische Normalzeit),NA,NA,q_f_bienenwabe.wav,NA,9,images/wallclock.jpg,NA,NA,NA,21520,honeycomb,NA,wallclock,machete,windshieldwiper,filler,230,1573754476784,filler,"Ja, das ist eine Bienenwabe.",NA,59,honeycomb,Danke für die Umfrage. Es hat wirklich Spaß gemacht.,images/windshieldwiper02.jpg,Hochschulabschluss,,f_bienenwabe.wav,honeycomb,deutsch,5be6b18edcdffd00012742ec,honeycomb,NA,weiblich,images/machete.jpg,16,1573753446422,"Ja, | das ist | eine Bienenwabe.",images/honeycomb.jpg,17.1727,NA,7466|5439,honeycomb|honeycomb|honeycomb,poor_folks_visual_world,"Ja, das ist eine ...",5
400,Magst du auch das bunte Ding?,Thu Nov 14 2019 18:44:06 GMT+0100 (Mitteleuropäische Normalzeit),NA,NA,q_f_geschenk.wav,NA,9,images/chest01.jpg,NA,NA,NA,60771,gift01,NA,chest01,patiochair,ironingboard01,filler,258,1573754476784,filler,"Ja, das ist ein schönes Geschenk.",NA,59,gift01,Danke für die Umfrage. Es hat wirklich Spaß gemacht.,images/ironingboard01.jpg,Hochschulabschluss,,f_geschenk.wav,gift01,deutsch,5be6b18edcdffd00012742ec,gift,NA,weiblich,images/patiochair.jpg,17,1573753446422,"Ja, | das ist | ein schönes Geschenk.",images/gift01.jpg,17.1727,NA,6607|8051,gift01|gift01|gift01,poor_folks_visual_world,"Ja, das ist ein schönes ...",10
400,Ist das ein Bild von einem Fingerhut?,Thu Nov 14 2019 18:44:06 GMT+0100 (Mitteleuropäische Normalzeit),thimble.jpg,indeed,q_u_fingerhut.wav,thread,9,images/thread02.jpg,das,Garn,3,35931,chessboard,der,Garn,racquetballracket,Fingerhut,unreliable,187,1573754476784,critical,Das ist tatsächlich ein Bild von einem Garn.,Fingerhut,59,Garn,Danke für die Umfrage. Es hat wirklich Spaß gemacht.,images/thimble.jpg,Hochschulabschluss,,u_t_garn.wav,Garn,deutsch,5be6b18edcdffd00012742ec,thimble-thread,thread02.jpg,weiblich,images/racquetballracket.jpg,18,1573753446422,Das ist | tatsächlich ein Bild von | einem Garn.,images/chessboard.jpg,17.1727,thimble,8617|8663,Fingerhut|Fingerhut|Garn,poor_folks_visual_world,Das ist tatsächlich ein Bild von einem ...,9
400,Wie heißt das bunte Tier?,Thu Nov 14 2019 18:44:06 GMT+0100 (Mitteleuropäische Normalzeit),NA,NA,q_f_pfau.wav,NA,9,images/pugdog.jpg,NA,NA,NA,13309,swallow,NA,pugdog,peacock,seaturtle,filler,211,1573754476784,filler,Das ist ein Pfau.,NA,59,peacock,Danke für die Umfrage. Es hat wirklich Spaß gemacht.,images/seaturtle.jpg,Hochschulabschluss,,f_pfau.wav,peacock,deutsch,5be6b18edcdffd00012742ec,peacock,NA,weiblich,images/peacock.jpg,19,1573753446422,Das ist | ein Pfau.,images/swallow.jpg,17.1727,NA,5317,peacock|peacock,poor_folks_visual_world,Das ist ein ...,2
400,Ist das ein Bild von einem Flamingo?,Thu Nov 14 2019 18:44:06 GMT+0100 (Mitteleuropäische Normalzeit),flamingo.jpg,indeed,q_r_flamingo.wav,turkey,9,images/puma.jpg,der,Truthahn,3,30447,Truthahn,der,puma,Flamingo,narwhal,reliable,11,1573754476784,critical,Das ist tatsächlich ein Bild von einem Flamingo.,Flamingo,59,Flamingo,Danke für die Umfrage. Es hat wirklich Spaß gemacht.,images/narwhal.jpg,Hochschulabschluss,,r_t_flamingo.wav,Flamingo,deutsch,5be6b18edcdffd00012742ec,flamingo-turkey,turkey.jpg,weiblich,images/flamingo.jpg,20,1573753446422,Das ist | tatsächlich ein Bild von | einem Flamingo.,images/turkey.jpg,17.1727,flamingo,17890|4541,Flamingo|Flamingo|Flamingo,poor_folks_visual_world,Das ist tatsächlich ein Bild von einem ...,2
400,Magst du auch das weiße Tier?,Thu Nov 14 2019 18:44:06 GMT+0100 (Mitteleuropäische Normalzeit),NA,NA,q_f_suesserwal.wav,NA,9,images/tarantula.jpg,NA,NA,NA,40999,belugawhale,NA,tarantula,siamesecat,barnowl,filler,213,1573754476784,filler,"Ja, das ist ein süßer Waal.",NA,59,belugawhale,Danke für die Umfrage. Es hat wirklich Spaß gemacht.,images/barnowl.jpg,Hochschulabschluss,,f_süßerwal.wav,belugawhale,deutsch,5be6b18edcdffd00012742ec,beluga-whale,NA,weiblich,images/siamesecat.jpg,21,1573753446422,"Ja, | das ist | ein süßer Waal.",images/belugawhale.jpg,17.1727,NA,6756|8836,belugawhale|belugawhale|belugawhale,poor_folks_visual_world,"Ja, das ist ein süßer ...",3
400,Magst du auch das Ding mit der Blume?,Thu Nov 14 2019 18:44:06 GMT+0100 (Mitteleuropäische Normalzeit),NA,NA,q_f_gemaelde.wav,NA,9,images/cashregister01.jpg,NA,NA,NA,19225,painting,NA,cashregister01,exitsign,entrancegate,filler,241,1573754476784,filler,"Ja, das ist ein schönes Gemälde. ",NA,59,painting,Danke für die Umfrage. Es hat wirklich Spaß gemacht.,images/entrancegate.jpg,Hochschulabschluss,,f_gemaelde.wav,painting,deutsch,5be6b18edcdffd00012742ec,painting,NA,weiblich,images/exitsign.jpg,22,1573753446422,"Ja, | das ist | ein schönes Gemälde. ",images/painting.jpg,17.1727,NA,6615|5389,painting|painting|painting,poor_folks_visual_world,"Ja, das ist ein schönes ...",7
400,Ist das ein Bild von einem Saxophon?,Thu Nov 14 2019 18:44:06 GMT+0100 (Mitteleuropäische Normalzeit),saxophone.jpg,indeed,q_r_saxophon.wav,cornet,9,images/saxophone.jpg,das,Kornett,4,19154,shower,das,Saxophon,Kornett,revolver,reliable,60,1573754476784,critical,Das ist tatsächlich ein Bild von einem Saxophon.,Saxophon,59,Saxophon,Danke für die Umfrage. Es hat wirklich Spaß gemacht.,images/revolver.jpg,Hochschulabschluss,,r_t_saxophon.wav,Saxophon,deutsch,5be6b18edcdffd00012742ec,saxophone-cornet,cornet.jpg,weiblich,images/cornet.jpg,23,1573753446422,Das ist | tatsächlich ein Bild von | einem Saxophon.,images/shower.jpg,17.1727,saxophone,5091|4831,Saxophon|Saxophon|Saxophon,poor_folks_visual_world,Das ist tatsächlich ein Bild von einem ...,6
400,Ist das ein Telefon?,Thu Nov 14 2019 18:44:06 GMT+0100 (Mitteleuropäische Normalzeit),NA,NA,q_f_walkietalkie.wav,NA,9,images/handcuffs.jpg,NA,NA,NA,35230,walkietalkie,NA,handcuffs,birdhouse,hibiscusflower02,filler,260,1573754476784,filler,"Nein, das ist ein Walkie-Talkie.",NA,59,walkietalkie,Danke für die Umfrage. Es hat wirklich Spaß gemacht.,images/hibiscusflower02.jpg,Hochschulabschluss,,f_walkietalkie.wav,walkietalkie,deutsch,5be6b18edcdffd00012742ec,walkie-talkie,NA,weiblich,images/birdhouse.jpg,24,1573753446422,"Nein, | das ist | ein Walkie-Talkie.",images/walkietalkie.jpg,17.1727,NA,4754|4125,walkietalkie|walkietalkie|walkietalkie,poor_folks_visual_world,"Nein, das ist ein ...",10
400,Ist das eine Gitarre?,Thu Nov 14 2019 18:44:06 GMT+0100 (Mitteleuropäische Normalzeit),NA,NA,q_f_gitarre.wav,NA,9,images/smartboard.jpg,NA,NA,NA,17081,alarmsystem,NA,smartboard,toyanimal05,electricguitar01,filler,247,1573754476784,filler,"Ja, das ist eine Gitarre.",NA,59,electricguitar01,Danke für die Umfrage. Es hat wirklich Spaß gemacht.,images/electricguitar01.jpg,Hochschulabschluss,,f_gitarre.wav,electricguitar01,deutsch,5be6b18edcdffd00012742ec,guitar,NA,weiblich,images/toyanimal05.jpg,25,1573753446422,"Ja, | das ist | eine Gitarre.",images/alarmsystem.jpg,17.1727,NA,5856|4851,electricguitar01|electricguitar01|electricguitar01,poor_folks_visual_world,"Ja, das ist eine ...",8
400,Magst du auch das sehr glänzende Ding?,Thu Nov 14 2019 18:44:06 GMT+0100 (Mitteleuropäische Normalzeit),NA,NA,q_f_trophaee.wav,NA,9,images/nametag01a.jpg,NA,NA,NA,20344,linedpaper,NA,nametag01a,trophy01,picnictable,filler,255,1573754476784,filler,"Ja, das ist eine sehr glänzende Trophäe.",NA,59,trophy01,Danke für die Umfrage. Es hat wirklich Spaß gemacht.,images/picnictable.jpg,Hochschulabschluss,,f_trophaee.wav,trophy01,deutsch,5be6b18edcdffd00012742ec,trophy,NA,weiblich,images/trophy01.jpg,26,1573753446422,"Ja, | das ist | eine sehr glänzende Trophäe.",images/linedpaper.jpg,17.1727,NA,7106|4964,trophy01|trophy01|trophy01,poor_folks_visual_world,"Ja, das ist eine sehr glänzende ...",10
400,Ist das ein Bild von einer Waage?,Thu Nov 14 2019 18:44:06 GMT+0100 (Mitteleuropäische Normalzeit),kitchenscale01a.jpg,actually,q_u_waage.wav,food-processor,9,images/syringe02.jpg,die,Küchenmaschine,2,19515,Waage,die,syringe02,greenolive,Küchenmaschine,unreliable,98,1573754476784,critical,Das ist eigentlich ein Bild von einer Waage.,Waage,59,Waage,Danke für die Umfrage. Es hat wirklich Spaß gemacht.,images/foodprocessor.jpg,Hochschulabschluss,,u_e_waage.wav,Waage,deutsch,5be6b18edcdffd00012742ec,scale-food-processor,foodprocessor.jpg,weiblich,images/greenolive.jpg,27,1573753446422,Das ist | eigentlich ein Bild von | einer Waage.,images/kitchenscale01a.jpg,17.1727,scale,6994|4928,Waage|Waage|Waage,poor_folks_visual_world,Das ist eigentlich ein Bild von einer ...,10
400,Ist das ein Boot?,Thu Nov 14 2019 18:44:06 GMT+0100 (Mitteleuropäische Normalzeit),NA,NA,q_f_boot.wav,NA,9,images/aquarium.jpg,NA,NA,NA,35232,halogenlightbulb,NA,aquarium,officecabinet,boat,filler,236,1573754476784,filler,"Ja, das ist ein Boot. ",NA,59,boat,Danke für die Umfrage. Es hat wirklich Spaß gemacht.,images/boat.jpg,Hochschulabschluss,,f_boot.wav,boat,deutsch,5be6b18edcdffd00012742ec,boat,NA,weiblich,images/officecabinet.jpg,28,1573753446422,"Ja, | das ist | ein Boot. ",images/halogenlightbulb.jpg,17.1727,NA,4931|6434,boat|boat|boat,poor_folks_visual_world,"Ja, das ist ein ...",6
399,Was ist das mit dem Schabel für ein Tier?,Thu Nov 14 2019 18:45:59 GMT+0100 (Mitteleuropäische Normalzeit),NA,NA,q_f_schnabeltier.wav,NA,9,images/platypus.jpg,NA,NA,NA,36615,crocodile,NA,platypus,greathornowl,cougar,filler,205,1573754445968,filler,Das ist ein Schnabeltier.,NA,67,platypus,,images/cougar.jpg,Universitärer Abschluss,,f_schnabeltier.wav,platypus,Deutsch,5c79a584670f87001646cef6,platypus,NA,weiblich,images/greathornowl.jpg,1,1573753559324,Das ist | ein Schnabeltier.,images/crocodile.jpg,14.7774,NA,18213,platypus|platypus,poor_folks_visual_world_training,Das ist ein ...,1
399,Ist das eine Türglocke?,Thu Nov 14 2019 18:45:59 GMT+0100 (Mitteleuropäische Normalzeit),NA,NA,q_f_klingel.wav,NA,9,images/cakeplatter.jpg,NA,NA,NA,41408,powerline,NA,cakeplatter,callbell,skippingrope,filler,245,1573754445968,filler,"Nein, das ist eine Klingel.",NA,67,callbell,,images/skippingrope.jpg,Universitärer Abschluss,,f_klingel.wav,callbell,Deutsch,5c79a584670f87001646cef6,call-bell,NA,weiblich,images/callbell.jpg,2,1573753559324,"Nein, | das ist | eine Klingel.",images/powerline.jpg,14.7774,NA,8786|8634,callbell|callbell|callbell,poor_folks_visual_world_training,"Nein, das ist eine ...",8
399,Gehört das auf Autoräder?,Thu Nov 14 2019 18:45:59 GMT+0100 (Mitteleuropäische Normalzeit),NA,NA,q_f_radkappe.wav,NA,9,images/hubcap.jpg,NA,NA,NA,27088,discoball,NA,hubcap,crown,exercisemachine,filler,242,1573754445968,filler,"Ja, das ist eine Radkappe.",NA,67,hubcap,,images/exercisemachine.jpg,Universitärer Abschluss,,f_radkappe.wav,hubcap,Deutsch,5c79a584670f87001646cef6,hubcap,NA,weiblich,images/crown.jpg,1,1573753559324,"Ja, | das ist | eine Radkappe.",images/discoball.jpg,14.7774,NA,6494|6544,hubcap|hubcap|hubcap,poor_folks_visual_world,"Ja, das ist eine ...",7
399,Ist das ein Bild von einer Jeans?,Thu Nov 14 2019 18:45:59 GMT+0100 (Mitteleuropäische Normalzeit),jeans01.jpg,actually,q_r_jeans.wav,shorts,9,images/bikepump01.jpg,die,Badehose,2,33524,Jeans,die,bikepump01,jellybean,Badehose,reliable,138,1573754445968,critical,Das ist eigentlich ein Bild von einer Badehose.,Jeans,67,Badehose,,images/swimsuit.jpg,Universitärer Abschluss,,r_e_badehose.wav,Badehose,Deutsch,5c79a584670f87001646cef6,pants-shorts,swimsuit.jpg,weiblich,images/jellybean.jpg,2,1573753559324,Das ist | eigentlich ein Bild von | einer Badehose.,images/jeans01.jpg,14.7774,pants,11138|7494,Jeans|Badehose|Badehose,poor_folks_visual_world,Das ist eigentlich ein Bild von einer ...,4
399,Benutzt man das hier um Waffeln zu machen?,Thu Nov 14 2019 18:45:59 GMT+0100 (Mitteleuropäische Normalzeit),NA,NA,q_f_waffeleisen.wav,NA,9,images/wafflemaker.jpg,NA,NA,NA,37126,chandelier,NA,wafflemaker,scooter,flower01,filler,248,1573754445968,filler,"Ja, das ist ein Waffeleisen.",NA,67,wafflemaker,,images/flower01.jpg,Universitärer Abschluss,,f_waffeleisen.wav,wafflemaker,Deutsch,5c79a584670f87001646cef6,waffle-maker,NA,weiblich,images/scooter.jpg,3,1573753559324,"Ja, | das ist | ein Waffeleisen.",images/chandelier.jpg,14.7774,NA,4898|6077,wafflemaker|wafflemaker|wafflemaker,poor_folks_visual_world,"Ja, das ist ein ...",8
399,Benutzt man das hier am Strand?,Thu Nov 14 2019 18:45:59 GMT+0100 (Mitteleuropäische Normalzeit),NA,NA,q_f_sonnenschirm.wav,NA,9,images/beachumbrella01.jpg,NA,NA,NA,37561,whiteout,NA,beachumbrella01,boxtrailer,muffintray01,filler,250,1573754445968,filler,"Ja, das ist ein Sonnenschirm.",NA,67,beachumbrella01,,images/muffintray01.jpg,Universitärer Abschluss,,f_sonnenschirm.wav,beachumbrella01,Deutsch,5c79a584670f87001646cef6,beach-umbrella,NA,weiblich,images/boxtrailer.jpg,4,1573753559324,"Ja, | das ist | ein Sonnenschirm.",images/whiteout.jpg,14.7774,NA,5688|3892,beachumbrella01|beachumbrella01|beachumbrella01,poor_folks_visual_world,"Ja, das ist ein ...",9
399,Ist das ein Bild von einer Teekanne?,Thu Nov 14 2019 18:45:59 GMT+0100 (Mitteleuropäische Normalzeit),teapot.jpg,actually,q_u_teekanne.wav,watering-can,9,images/fork03c.jpg,die,Gießkanne,4,21213,Teekanne,die,fork03c,giftbag01a,Gießkanne,unreliable,64,1573754445968,critical,Das ist eigentlich ein Bild von einer Teekanne.,Teekanne,67,Teekanne,,images/wateringcan.jpg,Universitärer Abschluss,,u_e_teekanne.wav,Teekanne,Deutsch,5c79a584670f87001646cef6,teapot-watering-can,wateringcan.jpg,weiblich,images/giftbag01a.jpg,5,1573753559324,Das ist | eigentlich ein Bild von | einer Teekanne.,images/teapot.jpg,14.7774,teapot,5277|4179,Teekanne|Teekanne|Teekanne,poor_folks_visual_world,Das ist eigentlich ein Bild von einer ...,7
399,Transportiert das hier Wasser?,Thu Nov 14 2019 18:45:59 GMT+0100 (Mitteleuropäische Normalzeit),NA,NA,q_f_zement.wav,NA,9,images/angelstatue.jpg,NA,NA,NA,25186,woodencrate01,NA,angelstatue,airconditioner,cementtruck,filler,227,1573754445968,filler,"Nein, das transportiert Zement.",NA,67,cementtruck,,images/cementtruck.jpg,Universitärer Abschluss,,f_zement.wav,cementtruck,Deutsch,5c79a584670f87001646cef6,cement-truck,NA,weiblich,images/airconditioner.jpg,6,1573753559324,"Nein, | das transportiert | Zement.",images/woodencrate01.jpg,14.7774,NA,4682|4226,cementtruck|cementtruck|cementtruck,poor_folks_visual_world,"Nein, das transportiert ...",5
399,Ist das ein Bild von einem Tennisschläger?,Thu Nov 14 2019 18:45:59 GMT+0100 (Mitteleuropäische Normalzeit),tennisracket.jpg,actually,q_r_tennisschlaeger.wav,snowshoe,9,images/snowshoe.jpg,der,Schneeschuh,4,20753,jokercard,der,Schneeschuh,Tennisschläger,television,reliable,148,1573754445968,critical,Das ist eigentlich ein Bild von einem Schneeschuh.,Tennisschläger,67,Schneeschuh,,images/television.jpg,Universitärer Abschluss,,r_e_schneeschuh.wav,Schneeschuh,Deutsch,5c79a584670f87001646cef6,tennis-racket-snowshoe,snowshoe.jpg,weiblich,images/tennisracket.jpg,7,1573753559324,Das ist | eigentlich ein Bild von | einem Schneeschuh.,images/jokercard.jpg,14.7774,tennis-racket,5495|3799,Tennisschläger|Schneeschuh|Schneeschuh,poor_folks_visual_world,Das ist eigentlich ein Bild von einem ...,5
399,Magst du auch das rote Tier?,Thu Nov 14 2019 18:45:59 GMT+0100 (Mitteleuropäische Normalzeit),NA,NA,q_f_fisch.wav,NA,9,images/badger.jpg,NA,NA,NA,44732,redlionfish,NA,badger,kangaroo,owl,filler,201,1573754445968,filler,"Ja, das ist ein sehr schöner Fisch.",NA,67,redlionfish,,images/owl.jpg,Universitärer Abschluss,,f_fisch.wav,redlionfish,Deutsch,5c79a584670f87001646cef6,redlion-fish,NA,weiblich,images/kangaroo.jpg,8,1573753559324,"Ja, | das ist | ein sehr schöner Fisch.",images/redlionfish.jpg,14.7774,NA,25485|4930,redlionfish|redlionfish|redlionfish,poor_folks_visual_world,"Ja, das ist ein sehr schöner ...",1
399,Magst du auch das Ding mit der Blume?,Thu Nov 14 2019 18:45:59 GMT+0100 (Mitteleuropäische Normalzeit),NA,NA,q_f_gemaelde.wav,NA,9,images/cashregister01.jpg,NA,NA,NA,14800,painting,NA,cashregister01,exitsign,entrancegate,filler,241,1573754445968,filler,"Ja, das ist ein schönes Gemälde. ",NA,67,painting,,images/entrancegate.jpg,Universitärer Abschluss,,f_gemaelde.wav,painting,Deutsch,5c79a584670f87001646cef6,painting,NA,weiblich,images/exitsign.jpg,9,1573753559324,"Ja, | das ist | ein schönes Gemälde. ",images/painting.jpg,14.7774,NA,3129|2940,painting|painting|painting,poor_folks_visual_world,"Ja, das ist ein schönes ...",7
399,Ist das ein Bild von einem Papierflieger?,Thu Nov 14 2019 18:45:59 GMT+0100 (Mitteleuropäische Normalzeit),paperairplane.jpg,indeed,q_r_papierflieger.wav,kite,9,images/paperairplane.jpg,der,Drachen,3,23532,magneticcompass,das,Papierflieger,centurionhelmet,Drache,reliable,23,1573754445968,critical,Das ist tatsächlich ein Bild von einem Papierflieger.,Papierflieger,67,Papierflieger,,images/kite.jpg,Universitärer Abschluss,,r_t_papierflieger.wav,Papierflieger,Deutsch,5c79a584670f87001646cef6,paper-plane-kite,kite.jpg,weiblich,images/centurionhelmet.jpg,10,1573753559324,Das ist | tatsächlich ein Bild von | einem Papierflieger.,images/magneticcompass.jpg,14.7774,paper-plane,3483|9119,Papierflieger|Papierflieger|Papierflieger,poor_folks_visual_world,Das ist tatsächlich ein Bild von einem ...,3
399,Ist das ein Bild von einem Flaschenöffner?,Thu Nov 14 2019 18:45:59 GMT+0100 (Mitteleuropäische Normalzeit),bottleopener01.jpg,actually,q_u_flaschenoeffner.wav,shoehorn,9,images/leaf02a.jpg,der,Schuhlöffel,3,22561,Flaschenöffner,der,leaf02a,Schuhlöffel,candleholder01,unreliable,75,1573754445968,critical,Das ist eigentlich ein Bild von einem Flaschenöffner.,Flaschenöffner,67,Schuhlöffel,,images/candleholder01.jpg,Universitärer Abschluss,,u_e_flaschenoeffner.wav,Flaschenöffner,Deutsch,5c79a584670f87001646cef6,bottle-opener-shoehorn,shoehorn.jpg,weiblich,images/shoehorn.jpg,11,1573753559324,Das ist | eigentlich ein Bild von | einem Flaschenöffner.,images/bottleopener01.jpg,14.7774,bottle-opener,4969|4045,Schuhlöffel|Schuhlöffel|Schuhlöffel,poor_folks_visual_world,Das ist eigentlich ein Bild von einem ...,8
399,Ist das ein Messer?,Thu Nov 14 2019 18:45:59 GMT+0100 (Mitteleuropäische Normalzeit),NA,NA,q_f_taschenmesser.wav,NA,9,images/swissarmyknife01a.jpg,NA,NA,NA,20983,wheat,NA,swissarmyknife01a,rockingchair,litterbox,filler,231,1573754445968,filler,"Ja, das ist ein schweizer Taschenmesser.",NA,67,swissarmyknife01a,,images/litterbox.jpg,Universitärer Abschluss,,f_schweizertaschenmesser.wav,swissarmyknife01a,Deutsch,5c79a584670f87001646cef6,swiss-army-knife,NA,weiblich,images/rockingchair.jpg,12,1573753559324,"Ja, | das ist | ein schweizer Taschenmesser.",images/wheat.jpg,14.7774,NA,8620|4894,swissarmyknife01a|swissarmyknife01a|swissarmyknife01a,poor_folks_visual_world,"Ja, das ist ein schweizer ...",6
399,Findest du das Ding mit dem Totenkopf auch gruselig?,Thu Nov 14 2019 18:45:59 GMT+0100 (Mitteleuropäische Normalzeit),NA,NA,q_f_piratenflagge.wav,NA,9,images/rose.jpg,NA,NA,NA,26201,chefshat,NA,rose,pirateflag,trumpet,filler,216,1573754445968,filler,"Ja, die Piratenflagge ist ein bisschen gruselig.",NA,67,pirateflag,,images/trumpet.jpg,Universitärer Abschluss,,f_piratenflagge.wav,pirateflag,Deutsch,5c79a584670f87001646cef6,pirate-flag,NA,weiblich,images/pirateflag.jpg,13,1573753559324,"Ja, | die Piratenflagge ist | ein bisschen gruselig.",images/chefshat.jpg,14.7774,NA,9190|6880,pirateflag|pirateflag|pirateflag,poor_folks_visual_world,"Ja, die ... ist ein bisschen gruselig.",3
399,Ist das ein Bild von einem Schal?,Thu Nov 14 2019 18:45:59 GMT+0100 (Mitteleuropäische Normalzeit),scarf.jpg,actually,q_u_schal.wav,rug,9,images/flask.jpg,der,Teppich,2,46058,Teppich,der,flask,marker01a,Schal,unreliable,86,1573754445968,critical,Das ist eigentlich ein Bild von einem Schal.,Schal,67,Teppich,,images/scarf.jpg,Universitärer Abschluss,,u_e_schal.wav,Schal,Deutsch,5c79a584670f87001646cef6,scarf-rug,rug01.jpg,weiblich,images/marker01a.jpg,14,1573753559324,Das ist | eigentlich ein Bild von | einem Schal.,images/rug01.jpg,14.7774,scarf,16934|13727,Teppich|Teppich|Teppich,poor_folks_visual_world,Das ist eigentlich ein Bild von einem ...,9
399,Kann man hiermit im Schnee spielen?,Thu Nov 14 2019 18:45:59 GMT+0100 (Mitteleuropäische Normalzeit),NA,NA,q_f_snowboard.wav,NA,9,images/christmaslights.jpg,NA,NA,NA,22230,snowboard,NA,christmaslights,acousticguitar02,spinningtoy,filler,252,1573754445968,filler,"Ja, das ist ein Snowboard.",NA,67,snowboard,,images/spinningtoy.jpg,Universitärer Abschluss,,f_snowboard.wav,snowboard,Deutsch,5c79a584670f87001646cef6,snowboard,NA,weiblich,images/acousticguitar02.jpg,15,1573753559324,"Ja, | das ist | ein Snowboard.",images/snowboard.jpg,14.7774,NA,4587|3084,snowboard|snowboard|snowboard,poor_folks_visual_world,"Ja, das ist ein ...",9
399,Wie heißt das Ding mit den drei Rädern?,Thu Nov 14 2019 18:45:59 GMT+0100 (Mitteleuropäische Normalzeit),NA,NA,q_f_dreirad.wav,NA,9,images/castletower.jpg,NA,NA,NA,11753,tricycle,NA,castletower,drinkshaker,rockinghorse,filler,218,1573754445968,filler,Das ist ein Dreirad.,NA,67,tricycle,,images/rockinghorse.jpg,Universitärer Abschluss,,f_dreirad.wav,tricycle,Deutsch,5c79a584670f87001646cef6,tricycle,NA,weiblich,images/drinkshaker.jpg,16,1573753559324,Das ist | ein Dreirad.,images/tricycle.jpg,14.7774,NA,3097,tricycle|tricycle,poor_folks_visual_world,Das ist ein ...,3
399,Benutzt man das hier für Butter?,Thu Nov 14 2019 18:45:59 GMT+0100 (Mitteleuropäische Normalzeit),NA,NA,q_f_messerfisch.wav,NA,9,images/butterknife.jpg,NA,NA,NA,24797,boatmotor,NA,butterknife,playground,fanblades,filler,259,1573754445968,filler,"Nein, das ist ein spezielles Messer für Fisch.",NA,67,butterknife,,images/fanblades.jpg,Universitärer Abschluss,,f_messerfisch.wav,butterknife,Deutsch,5c79a584670f87001646cef6,fish-knife,NA,weiblich,images/playground.jpg,17,1573753559324,"Nein, | das ist | ein spezielles Messer für Fisch.",images/boatmotor.jpg,14.7774,NA,11057|4146,butterknife|butterknife|butterknife,poor_folks_visual_world,"Nein, das ist ein spezielles ... für Fisch.",10
399,Ist das ein Bild von einem Rad?,Thu Nov 14 2019 18:45:59 GMT+0100 (Mitteleuropäische Normalzeit),wheel04.jpg,indeed,q_r_rad.wav,steering-wheel,9,images/scanner.jpg,das,Lenkrad,1,15793,Rad,das,scanner,Lenkrad,watercolorpaintset,reliable,49,1573754445968,critical,Das ist tatsächlich ein Bild von einem Rad.,Rad,67,Rad,,images/watercolorpaintset.jpg,Universitärer Abschluss,,r_t_rad.wav,Rad,Deutsch,5c79a584670f87001646cef6,wheel-steering-wheel,steeringwheel.jpg,weiblich,images/steeringwheel.jpg,18,1573753559324,Das ist | tatsächlich ein Bild von | einem Rad.,images/wheel04.jpg,14.7774,wheel,3638|3358,Rad|Rad|Rad,poor_folks_visual_world,Das ist tatsächlich ein Bild von einem ...,5
399,Wie heißt das große gelbe Ding?,Thu Nov 14 2019 18:45:59 GMT+0100 (Mitteleuropäische Normalzeit),NA,NA,q_f_bulldozer.wav,NA,9,images/bust.jpg,NA,NA,NA,11085,bulldozer,NA,bust,handbrush02,fireplace,filler,256,1573754445968,filler,Das ist ein Bulldozer.,NA,67,bulldozer,,images/fireplace.jpg,Universitärer Abschluss,,f_bulldozer.wav,bulldozer,Deutsch,5c79a584670f87001646cef6,bulldozer,NA,weiblich,images/handbrush02.jpg,19,1573753559324,Das ist | ein Bulldozer.,images/bulldozer.jpg,14.7774,NA,4698,bulldozer|bulldozer,poor_folks_visual_world,Das ist ein ...,10
399,Ist das ein Bild von einem Tischtennisschläger?,Thu Nov 14 2019 18:45:59 GMT+0100 (Mitteleuropäische Normalzeit),pingpongpaddle01a.jpg,indeed,q_u_tischtennisschlaeger.wav,lollipop,9,images/lock03a.jpg,der,Lolli,1,19645,Tischtennisschläger,der,lock03a,Lolli,eraser,unreliable,193,1573754445968,critical,Das ist tatsächlich ein Bild von einem Lolli.,Tischtennisschläger,67,Lolli,,images/eraser.jpg,Universitärer Abschluss,,u_t_lolli.wav,Lolli,Deutsch,5c79a584670f87001646cef6,ping-pong-paddle-lollipop,lollipop01.jpg,weiblich,images/lollipop01.jpg,20,1573753559324,Das ist | tatsächlich ein Bild von | einem Lolli.,images/pingpongpaddle01a.jpg,14.7774,ping-pong-paddle,4232|6076,Tischtennisschläger|Tischtennisschläger|Lolli,poor_folks_visual_world,Das ist tatsächlich ein Bild von einem ...,10
399,Ist das große weiße Ding für die Toilette?,Thu Nov 14 2019 18:45:59 GMT+0100 (Mitteleuropäische Normalzeit),NA,NA,q_f_klobuerste.wav,NA,9,images/toiletbrush.jpg,NA,NA,NA,16637,grill,NA,toiletbrush,strap,outdoorfireplace,filler,221,1573754445968,filler,"Ja, das ist eine Klobürste.",NA,67,toiletbrush,,images/outdoorfireplace.jpg,Universitärer Abschluss,,f_klobuerste.wav,toiletbrush,Deutsch,5c79a584670f87001646cef6,toilet-brush,NA,weiblich,images/strap.jpg,21,1573753559324,"Ja, | das ist | eine Klobürste.",images/grill.jpg,14.7774,NA,4238|3918,toiletbrush|toiletbrush|toiletbrush,poor_folks_visual_world,"Ja, das ist eine ...",4
399,Ist das ein Fisch?,Thu Nov 14 2019 18:45:59 GMT+0100 (Mitteleuropäische Normalzeit),NA,NA,q_f_wal.wav,NA,9,images/caribou02.jpg,NA,NA,NA,18959,scorpion,NA,caribou,asianelephant,whaleshark,filler,209,1573754445968,filler,"Nein, das ist ein Waal.",NA,67,whaleshark,,images/whaleshark.jpg,Universitärer Abschluss,,f_wal.wav,whaleshark,Deutsch,5c79a584670f87001646cef6,whale,NA,weiblich,images/asianelephant.jpg,22,1573753559324,"Nein, | das ist | ein Waal.",images/scorpion.jpg,14.7774,NA,6856|4674,whaleshark|scorpion|whaleshark,poor_folks_visual_world,"Nein, das ist ein ...",2
399,Ist das ein Bild von einem Tacker?,Thu Nov 14 2019 18:45:59 GMT+0100 (Mitteleuropäische Normalzeit),stapler03a.jpg,indeed,q_u_tacker.wav,staple-remover,9,images/stapler03a.jpg,der,Heftklammerentferner,2,30795,tank,der,Tacker,Heftklammerentferner,icecreamcone01a,unreliable,162,1573754445968,critical,Das ist tatsächlich ein Bild von einem Heftklammerentferner.,Tacker,67,Heftklammerentferner,,images/icecreamcone01a.jpg,Universitärer Abschluss,,u_t_heftklammerentferner.wav,Heftklammerentferner,Deutsch,5c79a584670f87001646cef6,stapler-staple-remover,stapleremover.jpg,weiblich,images/stapleremover.jpg,23,1573753559324,Das ist | tatsächlich ein Bild von | einem Heftklammerentferner.,images/tank.jpg,14.7774,stapler,13522|6597,Tacker|Tacker|Heftklammerentferner,poor_folks_visual_world,Das ist tatsächlich ein Bild von einem ...,7
399,Findest du das Tier mit der dicken Nase auch lustig?,Thu Nov 14 2019 18:45:59 GMT+0100 (Mitteleuropäische Normalzeit),NA,NA,q_f_affe.wav,NA,9,images/giraffe.jpg,NA,NA,NA,22271,saintbernard,NA,giraffe,monarchbutterfly,proboscismonkey,filler,210,1573754445968,filler,"Ja, das ist ein lustiger Affee.",NA,67,proboscismonkey,,images/proboscismonkey.jpg,Universitärer Abschluss,,f_affe.wav,proboscismonkey,Deutsch,5c79a584670f87001646cef6,proboscis-monkey,NA,weiblich,images/monarchbutterfly.jpg,24,1573753559324,"Ja, | das ist | ein lustiger Affee.",images/saintbernard.jpg,14.7774,NA,6239|5548,proboscismonkey|proboscismonkey|proboscismonkey,poor_folks_visual_world,"Ja, das ist ein lustiger ...",2
399,"Findest du auch, dass das Schwarze gemütlich aussieht?",Thu Nov 14 2019 18:45:59 GMT+0100 (Mitteleuropäische Normalzeit),NA,NA,q_f_stuhl.wav,NA,9,images/gravyboat.jpg,NA,NA,NA,20921,officechair03,NA,gravyboat,crosscountryski,diploma02,filler,226,1573754445968,filler,"Ja, der Stuhl sieht sehr gemütlich aus.",NA,67,officechair03,,images/diploma02.jpg,Universitärer Abschluss,,f_stuhl.wav,officechair03,Deutsch,5c79a584670f87001646cef6,office-chair,NA,weiblich,images/crosscountryski.jpg,25,1573753559324,"Ja, | der Stuhl sieht | sehr gemütlich aus.",images/officechair03.jpg,14.7774,NA,4562|5154,officechair03|officechair03|officechair03,poor_folks_visual_world,"Ja, der ... sieht sehr gemütlich aus.",5
399,Wie heißt das orangene Tier?,Thu Nov 14 2019 18:45:59 GMT+0100 (Mitteleuropäische Normalzeit),NA,NA,q_f_clownfisch.wav,NA,9,images/americanwhitepelican.jpg,NA,NA,NA,19891,clownfish,NA,americanwhitepelican,honeybee,bassethound,filler,208,1573754445968,filler,Das ist ein Clownfisch.,NA,67,clownfish,,images/bassethound.jpg,Universitärer Abschluss,,f_clownfisch.wav,clownfish,Deutsch,5c79a584670f87001646cef6,clownfish,NA,weiblich,images/honeybee.jpg,26,1573753559324,Das ist | ein Clownfisch.,images/clownfish.jpg,14.7774,NA,10596,clownfish|clownfish,poor_folks_visual_world,Das ist ein ...,2
399,Ist das ein Bild von einem Klemmbrett?,Thu Nov 14 2019 18:45:59 GMT+0100 (Mitteleuropäische Normalzeit),clipboard.jpg,indeed,q_u_klemmbrett.wav,binder,9,images/binder03b.jpg,der,Ordner,4,25157,nailpolish03b,das,Ordner,Klemmbrett,stuffedanimal02b,unreliable,200,1573754445968,critical,Das ist tatsächlich ein Bild von einem Ordner.,Klemmbrett,67,Ordner,,images/stuffedanimal02b.jpg,Universitärer Abschluss,,u_t_ordner.wav,Ordner,Deutsch,5c79a584670f87001646cef6,clipboard-binder,binder03b.jpg,weiblich,images/clipboard.jpg,27,1573753559324,Das ist | tatsächlich ein Bild von | einem Ordner.,images/nailpolish03b.jpg,14.7774,clipboard,5474|6473,Klemmbrett|Klemmbrett|Ordner,poor_folks_visual_world,Das ist tatsächlich ein Bild von einem ...,10
399,Ist das eine Gitarre?,Thu Nov 14 2019 18:45:59 GMT+0100 (Mitteleuropäische Normalzeit),NA,NA,q_f_gitarre.wav,NA,9,images/smartboard.jpg,NA,NA,NA,16147,alarmsystem,NA,smartboard,toyanimal05,electricguitar01,filler,247,1573754445968,filler,"Ja, das ist eine Gitarre.",NA,67,electricguitar01,,images/electricguitar01.jpg,Universitärer Abschluss,,f_gitarre.wav,electricguitar01,Deutsch,5c79a584670f87001646cef6,guitar,NA,weiblich,images/toyanimal05.jpg,28,1573753559324,"Ja, | das ist | eine Gitarre.",images/alarmsystem.jpg,14.7774,NA,4783|4060,electricguitar01|electricguitar01|electricguitar01,poor_folks_visual_world,"Ja, das ist eine ...",8
398,Was ist das für ein Tier mit den langen Hörnern?,Thu Nov 14 2019 18:41:21 GMT+0100 (Mitteleuropäische Normalzeit),NA,NA,q_f_nyala.wav,NA,9,images/nyala.jpg,NA,NA,NA,38333,dalmatian,NA,nyala,stuffedpuffin,heron01,filler,214,1573754075124,filler,Ich glaube das ist ein Nyala.,NA,40,nyala,,images/heron01.jpg,Abitur,,f_nyala.wav,nyala,Deutsch,5d9392e103f78f001bae5fd0,nyala,NA,weiblich,images/stuffedpuffin.jpg,1,1573753281781,"Ich glaube, | das ist | ein Nyala.",images/dalmatian.jpg,13.222383333333333,NA,12846|11944,nyala|nyala|nyala,poor_folks_visual_world_training,Ich glaube das ist ein ...,3
398,Ist das ein Fisch?,Thu Nov 14 2019 18:41:21 GMT+0100 (Mitteleuropäische Normalzeit),NA,NA,q_f_wal.wav,NA,9,images/caribou02.jpg,NA,NA,NA,34335,scorpion,NA,caribou,asianelephant,whaleshark,filler,209,1573754075124,filler,"Nein, das ist ein Waal.",NA,40,whaleshark,,images/whaleshark.jpg,Abitur,,f_wal.wav,whaleshark,Deutsch,5d9392e103f78f001bae5fd0,whale,NA,weiblich,images/asianelephant.jpg,2,1573753281781,"Nein, | das ist | ein Waal.",images/scorpion.jpg,13.222383333333333,NA,6356|7890,scorpion|scorpion|whaleshark,poor_folks_visual_world_training,"Nein, das ist ein ...",2
398,Findest du das Tier mit der dicken Nase auch lustig?,Thu Nov 14 2019 18:41:21 GMT+0100 (Mitteleuropäische Normalzeit),NA,NA,q_f_affe.wav,NA,9,images/giraffe.jpg,NA,NA,NA,30537,saintbernard,NA,giraffe,monarchbutterfly,proboscismonkey,filler,210,1573754075124,filler,"Ja, das ist ein lustiger Affee.",NA,40,proboscismonkey,,images/proboscismonkey.jpg,Abitur,,f_affe.wav,proboscismonkey,Deutsch,5d9392e103f78f001bae5fd0,proboscis-monkey,NA,weiblich,images/monarchbutterfly.jpg,1,1573753281781,"Ja, | das ist | ein lustiger Affee.",images/saintbernard.jpg,13.222383333333333,NA,8617|5077,proboscismonkey|proboscismonkey|proboscismonkey,poor_folks_visual_world,"Ja, das ist ein lustiger ...",2
398,Ist das ein Bild von einem Papagei?,Thu Nov 14 2019 18:41:21 GMT+0100 (Mitteleuropäische Normalzeit),parrot01.jpg,actually,q_r_papagei.wav,toucan,9,images/greatwhiteshark.jpg,der,Tukan,3,20467,Papagei,der,greatwhiteshark,Tukan,chipmunk,reliable,115,1573754075124,critical,Das ist eigentlich ein Bild von einem Tukan.,Papagei,40,Tukan,,images/chipmunk.jpg,Abitur,,r_e_tucan.wav,Tukan,Deutsch,5d9392e103f78f001bae5fd0,parrot-toucan,toucan.jpg,weiblich,images/toucan.jpg,2,1573753281781,Das ist | eigentlich ein Bild von | einem Tukan.,images/parrot01.jpg,13.222383333333333,parrot,5947|3883,Tukan|Tukan|Tukan,poor_folks_visual_world,Das ist eigentlich ein Bild von einem ...,2
398,Ist das ein kleines Boot?,Thu Nov 14 2019 18:41:21 GMT+0100 (Mitteleuropäische Normalzeit),NA,NA,q_f_windsurfbrett.wav,NA,9,images/windsurfboard.jpg,NA,NA,NA,16511,loppingshears,NA,windsurfboard,canoepaddle02,desktopcomputer,filler,254,1573754075124,filler,"Nein, das ist ein Windsurfbrett.",NA,40,windsurfboard,,images/desktopcomputer.jpg,Abitur,,f_windsurfbrett.wav,windsurfboard,Deutsch,5d9392e103f78f001bae5fd0,windsurf-board,NA,weiblich,images/canoepaddle02.jpg,3,1573753281781,"Nein, | das ist | ein Windsurfbrett.",images/loppingshears.jpg,13.222383333333333,NA,5798|4148,windsurfboard|windsurfboard|windsurfboard,poor_folks_visual_world,"Nein, das ist ein ...",9
398,Ist das ein Spülbecken?,Thu Nov 14 2019 18:41:21 GMT+0100 (Mitteleuropäische Normalzeit),NA,NA,q_f_wasserhahn.wav,NA,9,images/steamroller.jpg,NA,NA,NA,22636,flowerwreath,NA,steamroller,faucet,pin,filler,257,1573754075124,filler,"Nein, das ist ein Wasserhahn.",NA,40,faucet,,images/pin.jpg,Abitur,,f_wasserhahn.wav,faucet,Deutsch,5d9392e103f78f001bae5fd0,faucet,NA,weiblich,images/faucet.jpg,4,1573753281781,"Nein, | das ist | ein Wasserhahn.",images/flowerwreath.jpg,13.222383333333333,NA,3730|4386,faucet|faucet|faucet,poor_folks_visual_world,"Nein, das ist ein ...",10
398,Ist das ein Bild von einem Autoschlüssel?,Thu Nov 14 2019 18:41:21 GMT+0100 (Mitteleuropäische Normalzeit),carkey.jpg,actually,q_u_autoschluessel.wav,usb-stick,9,images/carkey.jpg,der,USB-Stick,2,23844,binoculars01b,der,Autoschlüssel,USB-Stick,screwdriver04b,unreliable,70,1573754075124,critical,Das ist eigentlich ein Bild von einem Autoschlüssel.,Autoschlüssel,40,Autoschlüssel,,images/screwdriver04b.jpg,Abitur,,u_e_autoschluessel.wav,Autoschlüssel,Deutsch,5d9392e103f78f001bae5fd0,car-key-usb-stick,usbkey.jpg,weiblich,images/usbkey.jpg,5,1573753281781,Das ist | eigentlich ein Bild von | einem Autoschlüssel.,images/binoculars01b.jpg,13.222383333333333,car-key,7195|8624,Autoschlüssel|USB-Stick|Autoschlüssel,poor_folks_visual_world,Das ist eigentlich ein Bild von einem ...,7
398,Ist das ein Boot?,Thu Nov 14 2019 18:41:21 GMT+0100 (Mitteleuropäische Normalzeit),NA,NA,q_f_boot.wav,NA,9,images/aquarium.jpg,NA,NA,NA,14243,halogenlightbulb,NA,aquarium,officecabinet,boat,filler,236,1573754075124,filler,"Ja, das ist ein Boot. ",NA,40,boat,,images/boat.jpg,Abitur,,f_boot.wav,boat,Deutsch,5d9392e103f78f001bae5fd0,boat,NA,weiblich,images/officecabinet.jpg,6,1573753281781,"Ja, | das ist | ein Boot. ",images/halogenlightbulb.jpg,13.222383333333333,NA,4971|4326,boat|boat|boat,poor_folks_visual_world,"Ja, das ist ein ...",6
398,Ist das ein Bild von einem Elektrorasierer?,Thu Nov 14 2019 18:41:21 GMT+0100 (Mitteleuropäische Normalzeit),electricrazor.jpg,indeed,q_u_elektrorasierer.wav,hair-clipper,9,images/hanger02a.jpg,der,Haarschneider,4,20573,Elektrorasierer,der,hanger02a,shirt01,Haarschneider,unreliable,172,1573754075124,critical,Das ist tatsächlich ein Bild von einem Haarschneider.,Elektrorasierer,40,Haarschneider,,images/hairclipper.jpg,Abitur,,u_t_haarschneider.wav,Haarschneider,Deutsch,5d9392e103f78f001bae5fd0,electric-razor-hair-clipper,hairclipper.jpg,weiblich,images/shirt01.jpg,7,1573753281781,Das ist | tatsächlich ein Bild von | einem Haarschneider.,images/electricrazor.jpg,13.222383333333333,electric-razor,6018|5612,Elektrorasierer|Elektrorasierer|Haarschneider,poor_folks_visual_world,Das ist tatsächlich ein Bild von einem ...,8
398,Magst du auch das sehr glänzende Ding?,Thu Nov 14 2019 18:41:21 GMT+0100 (Mitteleuropäische Normalzeit),NA,NA,q_f_trophaee.wav,NA,9,images/nametag01a.jpg,NA,NA,NA,15037,linedpaper,NA,nametag01a,trophy01,picnictable,filler,255,1573754075124,filler,"Ja, das ist eine sehr glänzende Trophäe.",NA,40,trophy01,,images/picnictable.jpg,Abitur,,f_trophaee.wav,trophy01,Deutsch,5d9392e103f78f001bae5fd0,trophy,NA,weiblich,images/trophy01.jpg,8,1573753281781,"Ja, | das ist | eine sehr glänzende Trophäe.",images/linedpaper.jpg,13.222383333333333,NA,3525|3208,trophy01|trophy01|trophy01,poor_folks_visual_world,"Ja, das ist eine sehr glänzende ...",10
398,Macht man hiermit den Boden sauber?,Thu Nov 14 2019 18:41:21 GMT+0100 (Mitteleuropäische Normalzeit),NA,NA,q_f_staubsauger.wav,NA,9,images/flipflop01b.jpg,NA,NA,NA,28966,drumset,NA,flipflop01b,curtain,vacuumcleaner01,filler,240,1573754075124,filler,"Ja, das ist ein Staubsauger.",NA,40,vacuumcleaner01,,images/vacuumcleaner01.jpg,Abitur,,f_staubsauger.wav,vacuumcleaner01,Deutsch,5d9392e103f78f001bae5fd0,vacuum-cleaner,NA,weiblich,images/curtain.jpg,9,1573753281781,"Ja, | das ist | ein Staubsauger.",images/drumset.jpg,13.222383333333333,NA,4327|4521,vacuumcleaner01|vacuumcleaner01|vacuumcleaner01,poor_folks_visual_world,"Ja, das ist ein ...",7
398,Ist das ein Bild von einem Portemonnaie?,Thu Nov 14 2019 18:41:21 GMT+0100 (Mitteleuropäische Normalzeit),wallet02a.jpg,actually,q_u_portemonnaie.wav,glasses-case,9,images/bib.jpg,das,Brillenetui,4,20049,Brillenetui,das,bib,mitten04,Portemonnaie,unreliable,76,1573754075124,critical,Das ist eigentlich ein Bild von einem Portemonnaie.,Portemonnaie,40,Brillenetui,,images/wallet02a.jpg,Abitur,,u_e_portemonnaie.wav,Portemonnaie,Deutsch,5d9392e103f78f001bae5fd0,wallet-glasses-case,glassescase.jpg,weiblich,images/mitten04.jpg,10,1573753281781,Das ist | eigentlich ein Bild von | einem Portemonnaie.,images/glassescase.jpg,13.222383333333333,wallet,4417|8503,Brillenetui|Brillenetui|Brillenetui,poor_folks_visual_world,Das ist eigentlich ein Bild von einem ...,8
398,Ist das ein Bild von einem Fensterabzieher?,Thu Nov 14 2019 18:41:21 GMT+0100 (Mitteleuropäische Normalzeit),squeegee01b.jpg,indeed,q_u_fensterabszieher.wav,razor,9,images/metronome.jpg,der,Rasierer,3,31155,Rasierer,der,metronome,Fensterabzieher,bracelet04,unreliable,171,1573754075124,critical,Das ist tatsächlich ein Bild von einem Rasierer.,Fensterabzieher,40,Rasierer,,images/bracelet04.jpg,Abitur,,u_t_rasierer.wav,Rasierer,Deutsch,5d9392e103f78f001bae5fd0,squeegee-razor,razor01.jpg,weiblich,images/squeegee01b.jpg,11,1573753281781,Das ist | tatsächlich ein Bild von | einem Rasierer.,images/razor01.jpg,13.222383333333333,squeegee,6526|5954,bracelet04|bracelet04|Rasierer,poor_folks_visual_world,Das ist tatsächlich ein Bild von einem ...,8
398,Magst du auch das weiße Tier?,Thu Nov 14 2019 18:41:21 GMT+0100 (Mitteleuropäische Normalzeit),NA,NA,q_f_suesserwal.wav,NA,9,images/tarantula.jpg,NA,NA,NA,17934,belugawhale,NA,tarantula,siamesecat,barnowl,filler,213,1573754075124,filler,"Ja, das ist ein süßer Waal.",NA,40,belugawhale,,images/barnowl.jpg,Abitur,,f_süßerwal.wav,belugawhale,Deutsch,5d9392e103f78f001bae5fd0,beluga-whale,NA,weiblich,images/siamesecat.jpg,12,1573753281781,"Ja, | das ist | ein süßer Waal.",images/belugawhale.jpg,13.222383333333333,NA,3740|3974,siamesecat|siamesecat|belugawhale,poor_folks_visual_world,"Ja, das ist ein süßer ...",3
398,Magst du auch das gelbe Ding?,Thu Nov 14 2019 18:41:21 GMT+0100 (Mitteleuropäische Normalzeit),NA,NA,q_f_schulbus.wav,NA,9,images/schoolbus.jpg,NA,NA,NA,15640,cleaver02,NA,schoolbus,worldmap,bucket02,filler,223,1573754075124,filler,"Ja, das ist ein schöner Schulbus.",NA,40,schoolbus,,images/bucket02.jpg,Abitur,,f_schulbus.wav,schoolbus,Deutsch,5d9392e103f78f001bae5fd0,school-bus,NA,weiblich,images/worldmap.jpg,13,1573753281781,"Ja, | das ist | ein schöner Schulbus.",images/cleaver02.jpg,13.222383333333333,NA,4125|4199,schoolbus|schoolbus|schoolbus,poor_folks_visual_world,"Ja, das ist ein schöner ...",4
398,Ist das ein Bild von einer Garnele ?,Thu Nov 14 2019 18:41:21 GMT+0100 (Mitteleuropäische Normalzeit),shrimp.jpg,indeed,q_r_garnelle.wav,lobster,9,images/toad.jpg,die,Languste,3,20236,Languste,die,toad,Garnele,canadiangoose,reliable,19,1573754075124,critical,Das ist tatsächlich ein Bild von einer Garnele.,Garnele,40,Garnele,,images/canadiangoose.jpg,Abitur,,r_t_garnele.wav,Garnele,Deutsch,5d9392e103f78f001bae5fd0,Shrimp-lobster,rocklobster.jpg,weiblich,images/shrimp.jpg,14,1573753281781,Das ist | tatsächlich ein Bild von | einer Garnele.,images/rocklobster.jpg,13.222383333333333,shrimp,4287|7440,Garnele|Garnele|Garnele,poor_folks_visual_world,Das ist tatsächlich ein Bild von einer ...,2
398,Ist das ein Pferd?,Thu Nov 14 2019 18:41:21 GMT+0100 (Mitteleuropäische Normalzeit),NA,NA,q_f_elch.wav,NA,9,images/swordfish.jpg,NA,NA,NA,28434,moose,NA,swordfish,muskox,pigeon,filler,203,1573754075124,filler,"Nein, das ist eine Elch.",NA,40,moose,,images/pigeon.jpg,Abitur,,f_elch.wav,moose,Deutsch,5d9392e103f78f001bae5fd0,moose,NA,weiblich,images/muskox.jpg,15,1573753281781,"Nein, | das ist | eine Elch.",images/moose.jpg,13.222383333333333,NA,3029|2819,moose|moose|moose,poor_folks_visual_world,"Nein, das ist eine ...",1
398,Magst du auch das Tier mit den schwarzen Punkten?,Thu Nov 14 2019 18:41:21 GMT+0100 (Mitteleuropäische Normalzeit),NA,NA,q_f_marienkaefer.wav,NA,9,images/ostrich.jpg,NA,NA,NA,14255,sturgeon,NA,ostrich,ladybug03,zebra,filler,204,1573754075124,filler,"Ja, das ist ein sehr schöner Marienkäfer. ",NA,40,ladybug03,,images/zebra.jpg,Abitur,,f_marienkaefer.wav,ladybug03,Deutsch,5d9392e103f78f001bae5fd0,ladybug,NA,weiblich,images/ladybug03.jpg,16,1573753281781,"Ja, | das ist | ein sehr schöner Marienkäfer. ",images/sturgeon.jpg,13.222383333333333,NA,3781|3497,ladybug03|ladybug03|ladybug03,poor_folks_visual_world,"Ja, das ist ein sehr schöner ...",1
398,Benutzt man das um Müll zu recyclen?,Thu Nov 14 2019 18:41:21 GMT+0100 (Mitteleuropäische Normalzeit),NA,NA,q_f_kiste.wav,NA,9,images/recyclingbin.jpg,NA,NA,NA,52857,kiwi03,NA,recyclingbin,lily,skateboard,filler,237,1573754075124,filler,"Ja, das ist eine Kiste zum Wiederverwerten.",NA,40,recyclingbin,,images/skateboard.jpg,Abitur,,f_kistewiederverwerten.wav,recyclingbin,Deutsch,5d9392e103f78f001bae5fd0,recycling-bin,NA,weiblich,images/lily.jpg,17,1573753281781,"Ja, | das ist | eine Kiste zum Wiederverwerten.",images/kiwi03.jpg,13.222383333333333,NA,4031|4796,recyclingbin|recyclingbin|recyclingbin,poor_folks_visual_world,"Ja, das ist eine ... zum Wiederverwerten.",7
398,Ist das ein Bild von einer Knoblauchpresse?,Thu Nov 14 2019 18:41:21 GMT+0100 (Mitteleuropäische Normalzeit),garlicpress02a.jpg,actually,q_u_knoblauchpresse.wav,grater,9,images/grater01a.jpg,die,Reibe,1,19347,battery02b,die,Reibe,mascarabrush,Knoblauchpresse,unreliable,69,1573754075124,critical,Das ist eigentlich ein Bild von einer Knoblauchpresse.,Knoblauchpresse,40,Knoblauchpresse,,images/garlicpress02a.jpg,Abitur,,u_e_knoblauchpresse.wav,Knoblauchpresse,Deutsch,5d9392e103f78f001bae5fd0,garlic-press-grater,grater01a.jpg,weiblich,images/mascarabrush.jpg,18,1573753281781,Das ist | eigentlich ein Bild von | einer Knoblauchpresse.,images/battery02b.jpg,13.222383333333333,garlic-press,8123|4372,Knoblauchpresse|Knoblauchpresse|Knoblauchpresse,poor_folks_visual_world,Das ist eigentlich ein Bild von einer ...,7
398,Findest du das Ding mit dem Totenkopf auch gruselig?,Thu Nov 14 2019 18:41:21 GMT+0100 (Mitteleuropäische Normalzeit),NA,NA,q_f_piratenflagge.wav,NA,9,images/rose.jpg,NA,NA,NA,17792,chefshat,NA,rose,pirateflag,trumpet,filler,216,1573754075124,filler,"Ja, die Piratenflagge ist ein bisschen gruselig.",NA,40,pirateflag,,images/trumpet.jpg,Abitur,,f_piratenflagge.wav,pirateflag,Deutsch,5d9392e103f78f001bae5fd0,pirate-flag,NA,weiblich,images/pirateflag.jpg,19,1573753281781,"Ja, | die Piratenflagge ist | ein bisschen gruselig.",images/chefshat.jpg,13.222383333333333,NA,4986|4228,pirateflag|pirateflag|pirateflag,poor_folks_visual_world,"Ja, die ... ist ein bisschen gruselig.",3
398,Ist das ein Bild von einem Salzstreuer?,Thu Nov 14 2019 18:41:21 GMT+0100 (Mitteleuropäische Normalzeit),saltshaker03a.jpg,actually,q_r_salzstreuer.wav,showerhead,9,images/showerhead01.jpg,der,Duschkopf,4,21442,doorhandle,der,Duschkopf,Salzstreuer,servingspoon01,reliable,156,1573754075124,critical,Das ist eigentlich ein Bild von einem Duschkopf.,Salzstreuer,40,Duschkopf,,images/servingspoon01.jpg,Abitur,,r_e_duschkopf.wav,Duschkopf,Deutsch,5d9392e103f78f001bae5fd0,salt-shaker-showerhead,showerhead01.jpg,weiblich,images/saltshaker03a.jpg,20,1573753281781,Das ist | eigentlich ein Bild von | einem Duschkopf.,images/doorhandle.jpg,13.222383333333333,salt-shaker,5188|9960,Salzstreuer|Salzstreuer|Duschkopf,poor_folks_visual_world,Das ist eigentlich ein Bild von einem ...,6
398,Benutzt man das hier für Blätter?,Thu Nov 14 2019 18:41:21 GMT+0100 (Mitteleuropäische Normalzeit),NA,NA,q_f_harke.wav,NA,9,images/busshelter.jpg,NA,NA,NA,66130,megaphone,NA,busshelter,bowrake,dresser02,filler,249,1573754075124,filler,"Ja, das nennt sich Harke. ",NA,40,bowrake,,images/dresser02.jpg,Abitur,,f_harke.wav,bowrake,Deutsch,5d9392e103f78f001bae5fd0,rake,NA,weiblich,images/bowrake.jpg,21,1573753281781,"Ja, | das nennt sich | Harke. ",images/megaphone.jpg,13.222383333333333,NA,3849|37193,dresser02|dresser02|bowrake,poor_folks_visual_world,"Ja, das nennt sich ...",9
398,Magst du auch das gelbe Ding?,Thu Nov 14 2019 18:41:21 GMT+0100 (Mitteleuropäische Normalzeit),NA,NA,q_f_narzisse.wav,NA,9,images/fighterjet.jpg,NA,NA,NA,18295,daffodil,NA,fighterjet,stubbywrench01a,lilypad,filler,234,1573754075124,filler,"Ja, das ist eine schöne Narzisse.",NA,40,daffodil,,images/lilypad.jpg,Abitur,,f_narzisse.wav,daffodil,Deutsch,5d9392e103f78f001bae5fd0,daffodil,NA,weiblich,images/stubbywrench01a.jpg,22,1573753281781,"Ja, | das ist | eine schöne Narzisse.",images/daffodil.jpg,13.222383333333333,NA,4378|8595,daffodil|daffodil|daffodil,poor_folks_visual_world,"Ja, das ist eine schöne ...",6
398,Ist das ein Bild von einem Klappstuhl?,Thu Nov 14 2019 18:41:21 GMT+0100 (Mitteleuropäische Normalzeit),foldingchair.jpg,indeed,q_r_klappstuhl.wav,stool,9,images/accordion01.jpg,der,Hocker,2,15518,Hocker,der,accordion01,skihelmet01,Klappstuhl,reliable,42,1573754075124,critical,Das ist tatsächlich ein Bild von einem Klappstuhl.,Klappstuhl,40,Klappstuhl,,images/foldingchair.jpg,Abitur,,r_t_klappstuhl.wav,Klappstuhl,Deutsch,5d9392e103f78f001bae5fd0,chair-stool,stool01.jpg,weiblich,images/skihelmet01.jpg,23,1573753281781,Das ist | tatsächlich ein Bild von | einem Klappstuhl.,images/stool01.jpg,13.222383333333333,chair,4649|4252,Klappstuhl|Klappstuhl|Klappstuhl,poor_folks_visual_world,Das ist tatsächlich ein Bild von einem ...,5
398,Magst du auch das sehr schöne Ding mit den drei Lagen?,Thu Nov 14 2019 18:41:21 GMT+0100 (Mitteleuropäische Normalzeit),NA,NA,q_f_hochzeitskuchen.wav,NA,9,images/toysoldier01b.jpg,NA,NA,NA,14597,mirror02,NA,toysoldier01b,womenwashroomsign,weddingcake,filler,239,1573754075124,filler,"Ja, das ist ein schöner Hochzeitskuchen.",NA,40,weddingcake,,images/weddingcake.jpg,Abitur,,f_hochzeitskuchen.wav,weddingcake,Deutsch,5d9392e103f78f001bae5fd0,wedding-cake,NA,weiblich,images/womenwashroomsign.jpg,24,1573753281781,"Ja, | das ist | ein schöner Hochzeitskuchen.",images/mirror02.jpg,13.222383333333333,NA,3923|3989,weddingcake|weddingcake|weddingcake,poor_folks_visual_world,"Ja, das ist ein schöner ...",7
398,Ist das große weiße Ding für die Toilette?,Thu Nov 14 2019 18:41:21 GMT+0100 (Mitteleuropäische Normalzeit),NA,NA,q_f_klobuerste.wav,NA,9,images/toiletbrush.jpg,NA,NA,NA,15969,grill,NA,toiletbrush,strap,outdoorfireplace,filler,221,1573754075124,filler,"Ja, das ist eine Klobürste.",NA,40,toiletbrush,,images/outdoorfireplace.jpg,Abitur,,f_klobuerste.wav,toiletbrush,Deutsch,5d9392e103f78f001bae5fd0,toilet-brush,NA,weiblich,images/strap.jpg,25,1573753281781,"Ja, | das ist | eine Klobürste.",images/grill.jpg,13.222383333333333,NA,3769|5196,toiletbrush|toiletbrush|toiletbrush,poor_folks_visual_world,"Ja, das ist eine ...",4
398,Magst du auch das große schwarze Tier?,Thu Nov 14 2019 18:41:21 GMT+0100 (Mitteleuropäische Normalzeit),NA,NA,q_f_baer.wav,NA,9,images/pig.jpg,NA,NA,NA,10727,blackbear,NA,pig,salmon,bat,filler,206,1573754075124,filler,"Ja, das ist ein sehr schöner schwarzer Bär.",NA,40,blackbear,,images/bat.jpg,Abitur,,f_baer.wav,blackbear,Deutsch,5d9392e103f78f001bae5fd0,black-bear,NA,weiblich,images/salmon.jpg,26,1573753281781,"Ja, | das ist | ein sehr schöner schwarzer Bär.",images/blackbear.jpg,13.222383333333333,NA,3592|3495,blackbear|blackbear|blackbear,poor_folks_visual_world,"Ja, das ist ein sehr schöner schwarzer ...",1
398,Ist das ein Bild von einem Sieb?,Thu Nov 14 2019 18:41:21 GMT+0100 (Mitteleuropäische Normalzeit),strainer02.jpg,indeed,q_u_sieb.wav,plastic-basket,9,images/plasticbasket01a.jpg,der,Korb,1,16374,apple07,das,Korb,alarmclock01,Sieb,unreliable,161,1573754075124,critical,Das ist tatsächlich ein Bild von einem Korb.,Sieb,40,Korb,,images/strainer02.jpg,Abitur,,u_t_korb.wav,Korb,Deutsch,5d9392e103f78f001bae5fd0,strainer-plastic-basket,Gummi,weiblich,images/alarmclock01.jpg,27,1573753281781,Das ist | tatsächlich ein Bild von | einem Korb.,images/apple07.jpg,13.222383333333333,strainer,4606|4369,Sieb|Sieb|Korb,poor_folks_visual_world,Das ist tatsächlich ein Bild von einem ...,7
398,Magst du auch das große Rad?,Thu Nov 14 2019 18:41:21 GMT+0100 (Mitteleuropäische Normalzeit),NA,NA,q_f_wagenrad.wav,NA,9,images/menwashroomsign.jpg,NA,NA,NA,11134,wagonwheel,NA,menwashroomsign,aloe01,kidpicnictable,filler,232,1573754075124,filler,"Ja, das ist ein großes Wagenrad. ",NA,40,wagonwheel,,images/kidpicnictable.jpg,Abitur,,f_wagenrad.wav,wagonwheel,Deutsch,5d9392e103f78f001bae5fd0,wagon-wheel,NA,weiblich,images/aloe01.jpg,28,1573753281781,"Ja, | das ist | ein großes Wagenrad. ",images/wagonwheel.jpg,13.222383333333333,NA,3172|3428,wagonwheel|wagonwheel|wagonwheel,poor_folks_visual_world,"Ja, das ist ein großes ...",6
397,Transportiert das hier Wasser?,Thu Nov 14 2019 18:42:38 GMT+0100 (Mitteleuropäische Normalzeit),NA,NA,q_f_zement.wav,NA,9,images/angelstatue.jpg,NA,NA,NA,22600,woodencrate01,NA,angelstatue,airconditioner,cementtruck,filler,227,1573753966697,filler,"Nein, das transportiert Zement.",NA,23,cementtruck,,images/cementtruck.jpg,Hochschulabschluss,,f_zement.wav,cementtruck,Deutsch,5c45fdfd63fc870001c1e772,cement-truck,NA,weiblich,images/airconditioner.jpg,1,1573753358716,"Nein, | das transportiert | Zement.",images/woodencrate01.jpg,10.133016666666666,NA,6792|5294,cementtruck|cementtruck|cementtruck,poor_folks_visual_world_training,"Nein, das transportiert ...",5
397,Ist das eine Türglocke?,Thu Nov 14 2019 18:42:38 GMT+0100 (Mitteleuropäische Normalzeit),NA,NA,q_f_klingel.wav,NA,9,images/cakeplatter.jpg,NA,NA,NA,19568,powerline,NA,cakeplatter,callbell,skippingrope,filler,245,1573753966697,filler,"Nein, das ist eine Klingel.",NA,23,callbell,,images/skippingrope.jpg,Hochschulabschluss,,f_klingel.wav,callbell,Deutsch,5c45fdfd63fc870001c1e772,call-bell,NA,weiblich,images/callbell.jpg,2,1573753358716,"Nein, | das ist | eine Klingel.",images/powerline.jpg,10.133016666666666,NA,5932|5973,callbell|callbell|callbell,poor_folks_visual_world_training,"Nein, das ist eine ...",8
397,Wie heißt das große gelbe Ding?,Thu Nov 14 2019 18:42:38 GMT+0100 (Mitteleuropäische Normalzeit),NA,NA,q_f_bulldozer.wav,NA,9,images/bust.jpg,NA,NA,NA,12245,bulldozer,NA,bust,handbrush02,fireplace,filler,256,1573753966697,filler,Das ist ein Bulldozer.,NA,23,bulldozer,,images/fireplace.jpg,Hochschulabschluss,,f_bulldozer.wav,bulldozer,Deutsch,5c45fdfd63fc870001c1e772,bulldozer,NA,weiblich,images/handbrush02.jpg,1,1573753358716,Das ist | ein Bulldozer.,images/bulldozer.jpg,10.133016666666666,NA,5437,bulldozer|bulldozer,poor_folks_visual_world,Das ist ein ...,10
397,Ist das ein Bild von einem Gürtel?,Thu Nov 14 2019 18:42:38 GMT+0100 (Mitteleuropäische Normalzeit),belt02a.jpg,indeed,q_u_guertel.wav,rubber-band,9,images/jug.jpg,das,Gummiband,2,24608,Gummiband,der,jug,hammer01,Gürtel,unreliable,194,1573753966697,critical,Das ist tatsächlich ein Bild von einem Gummiband.,Gürtel,23,Gummiband,,images/belt02a.jpg,Hochschulabschluss,,u_t_gummiband.wav,Gummiband,Deutsch,5c45fdfd63fc870001c1e772,belt-rubber-band,rubberband01.jpg,weiblich,images/hammer01.jpg,2,1573753358716,Das ist | tatsächlich ein Bild von | einem Gummiband.,images/rubberband01.jpg,10.133016666666666,belt,4781|5889,Gürtel|Gürtel|Gummiband,poor_folks_visual_world,Das ist tatsächlich ein Bild von einem ...,10
397,"Findest du nicht, dass dieses hier stachelig ist?",Thu Nov 14 2019 18:42:38 GMT+0100 (Mitteleuropäische Normalzeit),NA,NA,q_f_kakteen.wav,NA,9,images/locker.jpg,NA,NA,NA,21014,soccercleat01,NA,locker,cactus,safetyglasses,filler,220,1573753966697,filler,"Ja, Kakteen sind meistens sehr stachelig.",NA,23,cactus,,images/safetyglasses.jpg,Hochschulabschluss,,f_kakteen.wav,cactus,Deutsch,5c45fdfd63fc870001c1e772,cactus,NA,weiblich,images/cactus.jpg,3,1573753358716,"Ja, | Kakteen sind meistens | sehr stachelig.",images/soccercleat01.jpg,10.133016666666666,NA,5418|4528,cactus|cactus|cactus,poor_folks_visual_world,"Ja, ... sind meistens sehr stachelig.",4
397,Was ist das mit dem Schabel für ein Tier?,Thu Nov 14 2019 18:42:38 GMT+0100 (Mitteleuropäische Normalzeit),NA,NA,q_f_schnabeltier.wav,NA,9,images/platypus.jpg,NA,NA,NA,21076,crocodile,NA,platypus,greathornowl,cougar,filler,205,1573753966697,filler,Das ist ein Schnabeltier.,NA,23,platypus,,images/cougar.jpg,Hochschulabschluss,,f_schnabeltier.wav,platypus,Deutsch,5c45fdfd63fc870001c1e772,platypus,NA,weiblich,images/greathornowl.jpg,4,1573753358716,Das ist | ein Schnabeltier.,images/crocodile.jpg,10.133016666666666,NA,5128,platypus|platypus,poor_folks_visual_world,Das ist ein ...,1
397,Ist das ein Bild von einem Füller?,Thu Nov 14 2019 18:42:38 GMT+0100 (Mitteleuropäische Normalzeit),fountainpen.jpg,indeed,q_u_fueller.wav,pencil,9,images/pencil01.jpg,der,Bleistift,4,32726,bikehelmet,der,Bleistift,Füller,garlic01a,unreliable,192,1573753966697,critical,Das ist tatsächlich ein Bild von einem Bleistift.,Füller,23,Bleistift,,images/garlic01a.jpg,Hochschulabschluss,,u_t_bleistift.wav,Bleistift,Deutsch,5c45fdfd63fc870001c1e772,fountain-pen-pencil,pencil01.jpg,weiblich,images/fountainpen.jpg,5,1573753358716,Das ist | tatsächlich ein Bild von | einem Bleistift.,images/bikehelmet.jpg,10.133016666666666,fountain-pen,5115|5252,Bleistift|Füller|Bleistift,poor_folks_visual_world,Das ist tatsächlich ein Bild von einem ...,10
397,Wie heißt das rote Ding?,Thu Nov 14 2019 18:42:38 GMT+0100 (Mitteleuropäische Normalzeit),NA,NA,q_f_rohrzange.wav,NA,9,images/pipewrench.jpg,NA,NA,NA,18713,portapotty,NA,pipewrench,flugglehorn,jeep,filler,253,1573753966697,filler,Das nennt sich Rohrzange.,NA,23,pipewrench,,images/jeep.jpg,Hochschulabschluss,,f_rohrzange.wav,pipewrench,Deutsch,5c45fdfd63fc870001c1e772,pipe-wrench,NA,weiblich,images/flugglehorn.jpg,6,1573753358716,Das nennt sich | Rohrzange.,images/portapotty.jpg,10.133016666666666,NA,9294,jeep|pipewrench,poor_folks_visual_world,Das nennt sich ...,9
397,Ist das ein Bild von einem Fingerhut?,Thu Nov 14 2019 18:42:38 GMT+0100 (Mitteleuropäische Normalzeit),thimble.jpg,actually,q_u_fingerhut.wav,thread,9,images/thread02.jpg,das,Garn,3,23287,chessboard,der,Garn,racquetballracket,Fingerhut,unreliable,87,1573753966697,critical,Das ist eigentlich ein Bild von einem Fingerhut.,Fingerhut,23,Fingerhut,,images/thimble.jpg,Hochschulabschluss,,u_e_fingerhut.wav,Fingerhut,Deutsch,5c45fdfd63fc870001c1e772,thimble-thread,thread02.jpg,weiblich,images/racquetballracket.jpg,7,1573753358716,Das ist | eigentlich ein Bild von | einem Fingerhut.,images/chessboard.jpg,10.133016666666666,thimble,5321|5577,Garn|Garn|Fingerhut,poor_folks_visual_world,Das ist eigentlich ein Bild von einem ...,9
397,Findest du das Ding mit dem Totenkopf auch gruselig?,Thu Nov 14 2019 18:42:38 GMT+0100 (Mitteleuropäische Normalzeit),NA,NA,q_f_piratenflagge.wav,NA,9,images/rose.jpg,NA,NA,NA,17058,chefshat,NA,rose,pirateflag,trumpet,filler,216,1573753966697,filler,"Ja, die Piratenflagge ist ein bisschen gruselig.",NA,23,pirateflag,,images/trumpet.jpg,Hochschulabschluss,,f_piratenflagge.wav,pirateflag,Deutsch,5c45fdfd63fc870001c1e772,pirate-flag,NA,weiblich,images/pirateflag.jpg,8,1573753358716,"Ja, | die Piratenflagge ist | ein bisschen gruselig.",images/chefshat.jpg,10.133016666666666,NA,4638|6377,pirateflag|pirateflag|pirateflag,poor_folks_visual_world,"Ja, die ... ist ein bisschen gruselig.",3
397,Wie heißt das bunte Tier?,Thu Nov 14 2019 18:42:38 GMT+0100 (Mitteleuropäische Normalzeit),NA,NA,q_f_pfau.wav,NA,9,images/pugdog.jpg,NA,NA,NA,9971,swallow,NA,pugdog,peacock,seaturtle,filler,211,1573753966697,filler,Das ist ein Pfau.,NA,23,peacock,,images/seaturtle.jpg,Hochschulabschluss,,f_pfau.wav,peacock,Deutsch,5c45fdfd63fc870001c1e772,peacock,NA,weiblich,images/peacock.jpg,9,1573753358716,Das ist | ein Pfau.,images/swallow.jpg,10.133016666666666,NA,3875,peacock|peacock,poor_folks_visual_world,Das ist ein ...,2
397,Ist das ein Bild von einer Krabbe?,Thu Nov 14 2019 18:42:38 GMT+0100 (Mitteleuropäische Normalzeit),crab01.jpg,actually,q_r_krabbe.wav,spider,9,images/crab01.jpg,die,Spinne,2,18835,lizard,die,Krabbe,Spinne,tern,reliable,102,1573753966697,critical,Das ist eigentlich ein Bild von einer Spinne.,Krabbe,23,Spinne,,images/tern.jpg,Hochschulabschluss,,r_e_spinne.wav,Spinne,Deutsch,5c45fdfd63fc870001c1e772,crab-spider,daddylonglegs.jpg,weiblich,images/daddylonglegs.jpg,10,1573753358716,Das ist | eigentlich ein Bild von | einer Spinne.,images/lizard.jpg,10.133016666666666,crab,4403|3817,Spinne|Spinne|Spinne,poor_folks_visual_world,Das ist eigentlich ein Bild von einer ...,1
397,Ist das ein Bild von einer Kneifzange?,Thu Nov 14 2019 18:42:38 GMT+0100 (Mitteleuropäische Normalzeit),needlenosepliers01.jpg,actually,q_u_kneifzange.wav,scissors,9,images/computermouse06.jpg,die,Schere,4,16247,Schere,die,computermouse06,lamp04a,Kneifzange,unreliable,68,1573753966697,critical,Das ist eigentlich ein Bild von einer Kneifzange.,Kneifzange,23,Kneifzange,,images/needlenosepliers01.jpg,Hochschulabschluss,,u_e_kneifzange.wav,Kneifzange,Deutsch,5c45fdfd63fc870001c1e772,needlenose-pliers-scissors,scissors01.jpg,weiblich,images/lamp04a.jpg,11,1573753358716,Das ist | eigentlich ein Bild von | einer Kneifzange.,images/scissors01.jpg,10.133016666666666,needlenose-pliers,3918|6117,Schere|Schere|Kneifzange,poor_folks_visual_world,Das ist eigentlich ein Bild von einer ...,7
397,Ist das ein Pinguin?,Thu Nov 14 2019 18:42:38 GMT+0100 (Mitteleuropäische Normalzeit),NA,NA,q_f_pinguin.wav,NA,9,images/whitetiger.jpg,NA,NA,NA,14316,penguin,NA,whitetiger,cow,grasshopper,filler,207,1573753966697,filler,"Ja, das ist ein Pinguin.",NA,23,penguin,,images/grasshopper.jpg,Hochschulabschluss,,f_pinguin.wav,penguin,Deutsch,5c45fdfd63fc870001c1e772,penguin,NA,weiblich,images/cow.jpg,12,1573753358716,"Ja, | das ist | ein Pinguin.",images/penguin.jpg,10.133016666666666,NA,4346|3637,penguin|penguin|penguin,poor_folks_visual_world,"Ja, das ist ein ...",2
397,Magst du auch das große Rad?,Thu Nov 14 2019 18:42:38 GMT+0100 (Mitteleuropäische Normalzeit),NA,NA,q_f_wagenrad.wav,NA,9,images/menwashroomsign.jpg,NA,NA,NA,13599,wagonwheel,NA,menwashroomsign,aloe01,kidpicnictable,filler,232,1573753966697,filler,"Ja, das ist ein großes Wagenrad. ",NA,23,wagonwheel,,images/kidpicnictable.jpg,Hochschulabschluss,,f_wagenrad.wav,wagonwheel,Deutsch,5c45fdfd63fc870001c1e772,wagon-wheel,NA,weiblich,images/aloe01.jpg,13,1573753358716,"Ja, | das ist | ein großes Wagenrad. ",images/wagonwheel.jpg,10.133016666666666,NA,3691|3992,wagonwheel|wagonwheel|wagonwheel,poor_folks_visual_world,"Ja, das ist ein großes ...",6
397,Ist das ein Bild von einer Waage?,Thu Nov 14 2019 18:42:38 GMT+0100 (Mitteleuropäische Normalzeit),kitchenscale01a.jpg,actually,q_u_waage.wav,food-processor,9,images/syringe02.jpg,die,Küchenmaschine,2,17727,Waage,die,syringe02,greenolive,Küchenmaschine,unreliable,98,1573753966697,critical,Das ist eigentlich ein Bild von einer Waage.,Waage,23,Waage,,images/foodprocessor.jpg,Hochschulabschluss,,u_e_waage.wav,Waage,Deutsch,5c45fdfd63fc870001c1e772,scale-food-processor,foodprocessor.jpg,weiblich,images/greenolive.jpg,14,1573753358716,Das ist | eigentlich ein Bild von | einer Waage.,images/kitchenscale01a.jpg,10.133016666666666,scale,5284|5169,Waage|Waage|Waage,poor_folks_visual_world,Das ist eigentlich ein Bild von einer ...,10
397,Kann man hiermit im Schnee spielen?,Thu Nov 14 2019 18:42:38 GMT+0100 (Mitteleuropäische Normalzeit),NA,NA,q_f_snowboard.wav,NA,9,images/christmaslights.jpg,NA,NA,NA,15551,snowboard,NA,christmaslights,acousticguitar02,spinningtoy,filler,252,1573753966697,filler,"Ja, das ist ein Snowboard.",NA,23,snowboard,,images/spinningtoy.jpg,Hochschulabschluss,,f_snowboard.wav,snowboard,Deutsch,5c45fdfd63fc870001c1e772,snowboard,NA,weiblich,images/acousticguitar02.jpg,15,1573753358716,"Ja, | das ist | ein Snowboard.",images/snowboard.jpg,10.133016666666666,NA,4204|3864,snowboard|snowboard|snowboard,poor_folks_visual_world,"Ja, das ist ein ...",9
397,Wie heißt das Ding mit den drei Rädern?,Thu Nov 14 2019 18:42:38 GMT+0100 (Mitteleuropäische Normalzeit),NA,NA,q_f_dreirad.wav,NA,9,images/castletower.jpg,NA,NA,NA,10935,tricycle,NA,castletower,drinkshaker,rockinghorse,filler,218,1573753966697,filler,Das ist ein Dreirad.,NA,23,tricycle,,images/rockinghorse.jpg,Hochschulabschluss,,f_dreirad.wav,tricycle,Deutsch,5c45fdfd63fc870001c1e772,tricycle,NA,weiblich,images/drinkshaker.jpg,16,1573753358716,Das ist | ein Dreirad.,images/tricycle.jpg,10.133016666666666,NA,3731,tricycle|tricycle,poor_folks_visual_world,Das ist ein ...,3
397,Ist das ein Lieferwagen?,Thu Nov 14 2019 18:42:38 GMT+0100 (Mitteleuropäische Normalzeit),NA,NA,q_f_lieferwagen.wav,NA,9,images/microphone01.jpg,NA,NA,NA,13753,pitchfork,NA,microphone01,mailtruck,projectorscreen,filler,244,1573753966697,filler,"Ja, das ist ein Lieferwagen.",NA,23,mailtruck,,images/projectorscreen.jpg,Hochschulabschluss,,f_lieferwagen.wav,mailtruck,Deutsch,5c45fdfd63fc870001c1e772,delivery-truck,NA,weiblich,images/mailtruck.jpg,17,1573753358716,"Ja, | das ist | ein Lieferwagen.",images/pitchfork.jpg,10.133016666666666,NA,3632|4666,mailtruck|mailtruck|mailtruck,poor_folks_visual_world,"Ja, das ist ein ...",8
397,Ist das ein Bild von einer Zigarre?,Thu Nov 14 2019 18:42:38 GMT+0100 (Mitteleuropäische Normalzeit),cigar.jpg,actually,NA,pipe,9,images/balalaika.jpg,die,Pfeife,2,15950,Zigarre,die,balalaika,webcam,Pfeife,reliable,154,1573753966697,critical,Das ist eigentlich ein Bild von einer Pfeife.,Zigarre,23,Pfeife,,images/smokingpipe.jpg,Hochschulabschluss,,r_e_pfeife.wav,Pfeife,Deutsch,5c45fdfd63fc870001c1e772,cigar-pipe,smokingpipe.jpg,weiblich,images/webcam.jpg,18,1573753358716,Das ist | eigentlich ein Bild von | einer Pfeife.,images/cigar.jpg,10.133016666666666,cigar,3929|4556,Zigarre|Zigarre|Pfeife,poor_folks_visual_world,Das ist eigentlich ein Bild von einer ...,6
397,Magst du auch das sehr glänzende Ding?,Thu Nov 14 2019 18:42:38 GMT+0100 (Mitteleuropäische Normalzeit),NA,NA,q_f_trophaee.wav,NA,9,images/nametag01a.jpg,NA,NA,NA,16286,linedpaper,NA,nametag01a,trophy01,picnictable,filler,255,1573753966697,filler,"Ja, das ist eine sehr glänzende Trophäe.",NA,23,trophy01,,images/picnictable.jpg,Hochschulabschluss,,f_trophaee.wav,trophy01,Deutsch,5c45fdfd63fc870001c1e772,trophy,NA,weiblich,images/trophy01.jpg,19,1573753358716,"Ja, | das ist | eine sehr glänzende Trophäe.",images/linedpaper.jpg,10.133016666666666,NA,4155|4688,trophy01|trophy01|trophy01,poor_folks_visual_world,"Ja, das ist eine sehr glänzende ...",10
397,Ist das ein Bild von einem Bus?,Thu Nov 14 2019 18:42:38 GMT+0100 (Mitteleuropäische Normalzeit),bus.jpg,indeed,q_r_bus.wav,truck,9,images/poolnet.jpg,der,Lastwagen,1,15334,Bus,der,poolnet,Lastwagen,birdnest,reliable,25,1573753966697,critical,Das ist tatsächlich ein Bild von einem Bus.,Bus,23,Bus,,images/birdnest.jpg,Hochschulabschluss,,r_t_bus.wav,Bus,Deutsch,5c45fdfd63fc870001c1e772,bus-truck,boxtruck.jpg,weiblich,images/boxtruck.jpg,20,1573753358716,Das ist | tatsächlich ein Bild von | einem Bus.,images/bus.jpg,10.133016666666666,bus,4502|4720,Bus|Lastwagen|Bus,poor_folks_visual_world,Das ist tatsächlich ein Bild von einem ...,3
397,"Ist das gelbe Ding, das, wovon wir Honig bekommen?",Thu Nov 14 2019 18:42:38 GMT+0100 (Mitteleuropäische Normalzeit),NA,NA,q_f_bienenwabe.wav,NA,9,images/wallclock.jpg,NA,NA,NA,15663,honeycomb,NA,wallclock,machete,windshieldwiper,filler,230,1573753966697,filler,"Ja, das ist eine Bienenwabe.",NA,23,honeycomb,,images/windshieldwiper02.jpg,Hochschulabschluss,,f_bienenwabe.wav,honeycomb,Deutsch,5c45fdfd63fc870001c1e772,honeycomb,NA,weiblich,images/machete.jpg,21,1573753358716,"Ja, | das ist | eine Bienenwabe.",images/honeycomb.jpg,10.133016666666666,NA,4238|4007,honeycomb|honeycomb|honeycomb,poor_folks_visual_world,"Ja, das ist eine ...",5
397,Ist das eine Blume?,Thu Nov 14 2019 18:42:38 GMT+0100 (Mitteleuropäische Normalzeit),NA,NA,q_f_artischoke.wav,NA,9,images/waterfountain02.jpg,NA,NA,NA,22451,atm,NA,waterfountain02,pumpkin,artichoke01b,filler,238,1573753966697,filler,"Nein, das ist eine Artischocke, man kann sie kochen.",NA,23,artichoke01b,,images/artichoke01b.jpg,Hochschulabschluss,,f_artischoke.wav,artichoke01b,Deutsch,5c45fdfd63fc870001c1e772,artichoke,NA,weiblich,images/pumpkin.jpg,22,1573753358716,"Nein, | das ist | eine Artischocke, | man kann sie kochen.",images/atm.jpg,10.133016666666666,NA,4054|5666|5058,artichoke01b|artichoke01b|artichoke01b|artichoke01b,poor_folks_visual_world,"Nein, das ist eine ..., man kann sie kochen.",7
397,Ist das ein Bild von einem Kabel?,Thu Nov 14 2019 18:42:38 GMT+0100 (Mitteleuropäische Normalzeit),powercable.jpg,indeed,q_u_kabel2.wav,ribbon,9,images/ribbon04.jpg,das,Geschenkband,3,16272,cane,das,Geschenkband,bucket01a,Kabel,unreliable,195,1573753966697,critical,Das ist tatsächlich ein Bild von einem Geschenkband.,Kabel,23,Geschenkband,,images/powercable.jpg,Hochschulabschluss,,u_t_geschenkband.wav,Geschenkband,Deutsch,5c45fdfd63fc870001c1e772,power-cable-ribbon,ribbon04.jpg,weiblich,images/bucket01a.jpg,23,1573753358716,Das ist | tatsächlich ein Bild von | einem Geschenkband.,images/cane.jpg,10.133016666666666,power-cable,6379|4672,Geschenkband|Geschenkband|Geschenkband,poor_folks_visual_world,Das ist tatsächlich ein Bild von einem ...,10
397,Benutzt man das hier für Blätter?,Thu Nov 14 2019 18:42:38 GMT+0100 (Mitteleuropäische Normalzeit),NA,NA,q_f_harke.wav,NA,9,images/busshelter.jpg,NA,NA,NA,17749,megaphone,NA,busshelter,bowrake,dresser02,filler,249,1573753966697,filler,"Ja, das nennt sich Harke. ",NA,23,bowrake,,images/dresser02.jpg,Hochschulabschluss,,f_harke.wav,bowrake,Deutsch,5c45fdfd63fc870001c1e772,rake,NA,weiblich,images/bowrake.jpg,24,1573753358716,"Ja, | das nennt sich | Harke. ",images/megaphone.jpg,10.133016666666666,NA,5703|4159,bowrake|bowrake|bowrake,poor_folks_visual_world,"Ja, das nennt sich ...",9
397,Ist das ein Stachelrochen?,Thu Nov 14 2019 18:42:38 GMT+0100 (Mitteleuropäische Normalzeit),NA,NA,q_f_pfeilschwanzkrebs.wav,NA,9,images/horseshoecrab.jpg,NA,NA,NA,34301,slug,NA,horseshoecrab,porcupine,butterfly,filler,215,1573753966697,filler,"Nein, das ist ein Pfeilschwanzkrebs, der hat eine harte Schale. ",NA,23,horseshoecrab,,images/butterfly.jpg,Hochschulabschluss,,f_pfeilschwanzkrebs.wav,horseshoecrab,Deutsch,5c45fdfd63fc870001c1e772,horseshoe-crab,NA,weiblich,images/porcupine.jpg,25,1573753358716,"Nein, | das ist | ein Pfeilschwanzkrebs, | der hat | eine harte Schale. ",images/slug.jpg,10.133016666666666,NA,6704|6474|5127|3935,porcupine|porcupine|horseshoecrab|horseshoecrab|horseshoecrab,poor_folks_visual_world,"Nein, das ist ein ..., der hat eine harte Schale.",3
397,Magst du auch das bunte Ding?,Thu Nov 14 2019 18:42:38 GMT+0100 (Mitteleuropäische Normalzeit),NA,NA,q_f_serviette.wav,NA,9,images/cymbal.jpg,NA,NA,NA,17594,spotlight,NA,cymbal,outdoorchair,napkin,filler,246,1573753966697,filler,"Ja, das ist eine sehr schöne Serviette. ",NA,23,napkin,,images/napkin.jpg,Hochschulabschluss,,f_servierte.wav,napkin,Deutsch,5c45fdfd63fc870001c1e772,napkin,NA,weiblich,images/outdoorchair.jpg,26,1573753358716,"Ja, | das ist | eine sehr schöne Serviette. ",images/spotlight.jpg,10.133016666666666,NA,5575|5585,napkin|napkin|napkin,poor_folks_visual_world,"Ja, das ist eine sehr schöne ...",8
397,Ist das ein Bild von einem Flamingo?,Thu Nov 14 2019 18:42:38 GMT+0100 (Mitteleuropäische Normalzeit),flamingo.jpg,indeed,q_r_flamingo.wav,turkey,9,images/puma.jpg,der,Truthahn,3,14654,Truthahn,der,puma,Flamingo,narwhal,reliable,11,1573753966697,critical,Das ist tatsächlich ein Bild von einem Flamingo.,Flamingo,23,Flamingo,,images/narwhal.jpg,Hochschulabschluss,,r_t_flamingo.wav,Flamingo,Deutsch,5c45fdfd63fc870001c1e772,flamingo-turkey,turkey.jpg,weiblich,images/flamingo.jpg,27,1573753358716,Das ist | tatsächlich ein Bild von | einem Flamingo.,images/turkey.jpg,10.133016666666666,flamingo,4175|4093,Truthahn|Truthahn|Flamingo,poor_folks_visual_world,Das ist tatsächlich ein Bild von einem ...,2
397,Magst du auch das gelbe Ding?,Thu Nov 14 2019 18:42:38 GMT+0100 (Mitteleuropäische Normalzeit),NA,NA,q_f_schulbus.wav,NA,9,images/schoolbus.jpg,NA,NA,NA,13651,cleaver02,NA,schoolbus,worldmap,bucket02,filler,223,1573753966697,filler,"Ja, das ist ein schöner Schulbus.",NA,23,schoolbus,,images/bucket02.jpg,Hochschulabschluss,,f_schulbus.wav,schoolbus,Deutsch,5c45fdfd63fc870001c1e772,school-bus,NA,weiblich,images/worldmap.jpg,28,1573753358716,"Ja, | das ist | ein schöner Schulbus.",images/cleaver02.jpg,10.133016666666666,NA,3975|4213,schoolbus|schoolbus|schoolbus,poor_folks_visual_world,"Ja, das ist ein schöner ...",4
396,Findest du das Ding mit dem Totenkopf auch gruselig?,Thu Nov 14 2019 18:44:15 GMT+0100 (Mitteleuropäische Normalzeit),NA,NA,q_f_piratenflagge.wav,NA,9,images/rose.jpg,NA,NA,NA,19607,chefshat,NA,rose,pirateflag,trumpet,filler,216,1573753966295,filler,"Ja, die Piratenflagge ist ein bisschen gruselig.",NA,21,pirateflag,war eine schöne Studie!,images/trumpet.jpg,Hochschulabschluss,,f_piratenflagge.wav,pirateflag,Deutsch,5daf91f26c98f70015c6b76d,pirate-flag,NA,weiblich,images/pirateflag.jpg,1,1573753455916,"Ja, | die Piratenflagge ist | ein bisschen gruselig.",images/chefshat.jpg,8.506316666666667,NA,5684|4781,pirateflag|pirateflag|pirateflag,poor_folks_visual_world_training,"Ja, die ... ist ein bisschen gruselig.",3
396,Findest du das Tier mit der dicken Nase auch lustig?,Thu Nov 14 2019 18:44:15 GMT+0100 (Mitteleuropäische Normalzeit),NA,NA,q_f_affe.wav,NA,9,images/giraffe.jpg,NA,NA,NA,14852,saintbernard,NA,giraffe,monarchbutterfly,proboscismonkey,filler,210,1573753966295,filler,"Ja, das ist ein lustiger Affee.",NA,21,proboscismonkey,war eine schöne Studie!,images/proboscismonkey.jpg,Hochschulabschluss,,f_affe.wav,proboscismonkey,Deutsch,5daf91f26c98f70015c6b76d,proboscis-monkey,NA,weiblich,images/monarchbutterfly.jpg,2,1573753455916,"Ja, | das ist | ein lustiger Affee.",images/saintbernard.jpg,8.506316666666667,NA,4261|5216,proboscismonkey|proboscismonkey|proboscismonkey,poor_folks_visual_world_training,"Ja, das ist ein lustiger ...",2
396,"Ist das gelbe Ding, das, wovon wir Honig bekommen?",Thu Nov 14 2019 18:44:15 GMT+0100 (Mitteleuropäische Normalzeit),NA,NA,q_f_bienenwabe.wav,NA,9,images/wallclock.jpg,NA,NA,NA,14724,honeycomb,NA,wallclock,machete,windshieldwiper,filler,230,1573753966295,filler,"Ja, das ist eine Bienenwabe.",NA,21,honeycomb,war eine schöne Studie!,images/windshieldwiper02.jpg,Hochschulabschluss,,f_bienenwabe.wav,honeycomb,Deutsch,5daf91f26c98f70015c6b76d,honeycomb,NA,weiblich,images/machete.jpg,1,1573753455916,"Ja, | das ist | eine Bienenwabe.",images/honeycomb.jpg,8.506316666666667,NA,4504|4118,honeycomb|honeycomb|honeycomb,poor_folks_visual_world,"Ja, das ist eine ...",5
396,Ist das ein Bild von einer Schaufel?,Thu Nov 14 2019 18:44:15 GMT+0100 (Mitteleuropäische Normalzeit),shovel01.jpg,indeed,q_r_schaufel.wav,pickaxe,9,images/shovel01.jpg,die,Spitzhacke,3,15796,masquerademask01,die,Schaufel,tabascosauce,Spitzhacke,reliable,39,1573753966295,critical,Das ist tatsächlich ein Bild von einer Schaufel.,Schaufel,21,Schaufel,war eine schöne Studie!,images/pickaxe02.jpg,Hochschulabschluss,,r_t_schaufel.wav,Schaufel,Deutsch,5daf91f26c98f70015c6b76d,shovel-pickaxe,pickaxe02.jpg,weiblich,images/tabascosauce.jpg,2,1573753455916,Das ist | tatsächlich ein Bild von | einer Schaufel.,images/masquerademask01.jpg,8.506316666666667,shovel,4999|5665,Schaufel|Schaufel|Schaufel,poor_folks_visual_world,Das ist tatsächlich ein Bild von einer ...,4
396,Ist das ein Boot?,Thu Nov 14 2019 18:44:15 GMT+0100 (Mitteleuropäische Normalzeit),NA,NA,q_f_boot.wav,NA,9,images/aquarium.jpg,NA,NA,NA,14930,halogenlightbulb,NA,aquarium,officecabinet,boat,filler,236,1573753966295,filler,"Ja, das ist ein Boot. ",NA,21,boat,war eine schöne Studie!,images/boat.jpg,Hochschulabschluss,,f_boot.wav,boat,Deutsch,5daf91f26c98f70015c6b76d,boat,NA,weiblich,images/officecabinet.jpg,3,1573753455916,"Ja, | das ist | ein Boot. ",images/halogenlightbulb.jpg,8.506316666666667,NA,4276|4386,boat|boat|boat,poor_folks_visual_world,"Ja, das ist ein ...",6
396,Magst du auch das Tier mit den schwarzen Punkten?,Thu Nov 14 2019 18:44:15 GMT+0100 (Mitteleuropäische Normalzeit),NA,NA,q_f_marienkaefer.wav,NA,9,images/ostrich.jpg,NA,NA,NA,15791,sturgeon,NA,ostrich,ladybug03,zebra,filler,204,1573753966295,filler,"Ja, das ist ein sehr schöner Marienkäfer. ",NA,21,ladybug03,war eine schöne Studie!,images/zebra.jpg,Hochschulabschluss,,f_marienkaefer.wav,ladybug03,Deutsch,5daf91f26c98f70015c6b76d,ladybug,NA,weiblich,images/ladybug03.jpg,4,1573753455916,"Ja, | das ist | ein sehr schöner Marienkäfer. ",images/sturgeon.jpg,8.506316666666667,NA,4275|4169,ladybug03|ladybug03|ladybug03,poor_folks_visual_world,"Ja, das ist ein sehr schöner ...",1
396,Ist das ein Bild von einem Streichholz?,Thu Nov 14 2019 18:44:15 GMT+0100 (Mitteleuropäische Normalzeit),match.jpg,actually,q_u_streichholz.wav,toothpick,9,images/peach01.jpg,der,Zahnstocher,3,18455,Zahnstocher,das,peach01,Streichholz,hairdryer02a,unreliable,79,1573753966295,critical,Das ist eigentlich ein Bild von einem Streichholz.,Streichholz,21,Streichholz,war eine schöne Studie!,images/hairdryer02a.jpg,Hochschulabschluss,,u_e_streichholz.wav,Streichholz,Deutsch,5daf91f26c98f70015c6b76d,match-toothpick,toothpick02.jpg,weiblich,images/match.jpg,5,1573753455916,Das ist | eigentlich ein Bild von | einem Streichholz.,images/toothpick02.jpg,8.506316666666667,match,6224|6867,Streichholz|Zahnstocher|Streichholz,poor_folks_visual_world,Das ist eigentlich ein Bild von einem ...,8
396,"Findest du nicht, dass dieses Tier schöne Punkte hat?",Thu Nov 14 2019 18:44:15 GMT+0100 (Mitteleuropäische Normalzeit),NA,NA,q_f_gepard.wav,NA,9,images/cormorant.jpg,NA,NA,NA,12445,swan,NA,cormorant,africanelephant,cheetah,filler,212,1573753966295,filler,"Ja, der Gepard hat schöne Flecken.",NA,21,cheetah,war eine schöne Studie!,images/cheetah.jpg,Hochschulabschluss,,f_gepard.wav,cheetah,Deutsch,5daf91f26c98f70015c6b76d,cheetah,NA,weiblich,images/africanelephant.jpg,6,1573753455916,"Ja, | der Gepard hat | schöne Flecken.",images/swan.jpg,8.506316666666667,NA,4085|2212,cheetah|cheetah|cheetah,poor_folks_visual_world,"Ja, der ... hat schöne Flecken.",2
396,Ist das ein Bild von einem Tacker?,Thu Nov 14 2019 18:44:15 GMT+0100 (Mitteleuropäische Normalzeit),stapler03a.jpg,actually,q_u_tacker.wav,staple-remover,9,images/stapler03a.jpg,der,Heftklammerentferner,2,16485,tank,der,Tacker,Heftklammerentferner,icecreamcone01a,unreliable,62,1573753966295,critical,Das ist eigentlich ein Bild von einem Tacker.,Tacker,21,Tacker,war eine schöne Studie!,images/icecreamcone01a.jpg,Hochschulabschluss,,u_e_tacker.wav,Tacker,Deutsch,5daf91f26c98f70015c6b76d,stapler-staple-remover,stapleremover.jpg,weiblich,images/stapleremover.jpg,7,1573753455916,Das ist | eigentlich ein Bild von | einem Tacker.,images/tank.jpg,8.506316666666667,stapler,4715|4556,Tacker|Heftklammerentferner|Tacker,poor_folks_visual_world,Das ist eigentlich ein Bild von einem ...,7
396,Ist das etwas was man zum Kämpfen benutzt?,Thu Nov 14 2019 18:44:15 GMT+0100 (Mitteleuropäische Normalzeit),NA,NA,q_f_boxhandschuh.wav,NA,9,images/stovetop.jpg,NA,NA,NA,13031,boxingglove01,NA,stovetop,hedgeshears,pedestriancrossingsign,filler,225,1573753966295,filler,"Ja, das ist ein Boxhandschuh.",NA,21,boxingglove01,war eine schöne Studie!,images/pedestriancrossingsign.jpg,Hochschulabschluss,,f_boxhandschuh.wav,boxingglove01,Deutsch,5daf91f26c98f70015c6b76d,boxing-glove,NA,weiblich,images/hedgeshears.jpg,8,1573753455916,"Ja, | das ist | ein Boxhandschuh.",images/boxingglove01.jpg,8.506316666666667,NA,4570|3675,boxingglove01|boxingglove01|boxingglove01,poor_folks_visual_world,"Ja, das ist ein ?",5
396,Macht man hiermit den Boden sauber?,Thu Nov 14 2019 18:44:15 GMT+0100 (Mitteleuropäische Normalzeit),NA,NA,q_f_staubsauger.wav,NA,9,images/flipflop01b.jpg,NA,NA,NA,11789,drumset,NA,flipflop01b,curtain,vacuumcleaner01,filler,240,1573753966295,filler,"Ja, das ist ein Staubsauger.",NA,21,vacuumcleaner01,war eine schöne Studie!,images/vacuumcleaner01.jpg,Hochschulabschluss,,f_staubsauger.wav,vacuumcleaner01,Deutsch,5daf91f26c98f70015c6b76d,vacuum-cleaner,NA,weiblich,images/curtain.jpg,9,1573753455916,"Ja, | das ist | ein Staubsauger.",images/drumset.jpg,8.506316666666667,NA,2478|4235,vacuumcleaner01|vacuumcleaner01|vacuumcleaner01,poor_folks_visual_world,"Ja, das ist ein ...",7
396,Ist das ein Bild von einem Gecko?,Thu Nov 14 2019 18:44:15 GMT+0100 (Mitteleuropäische Normalzeit),gecko.jpg,actually,q_r_gecko.wav,chameleon,9,images/gecko.jpg,das,Chamäleon,4,15487,fennec,der,Gecko,sapsucker,Chamäleon,reliable,120,1573753966295,critical,Das ist eigentlich ein Bild von einem Chamäleon.,Gecko,21,Chamäleon,war eine schöne Studie!,images/chameleon.jpg,Hochschulabschluss,,r_e_chameleon.wav,Chamäleon,Deutsch,5daf91f26c98f70015c6b76d,gecko-chameleon,chameleon.jpg,weiblich,images/sapsucker.jpg,10,1573753455916,Das ist | eigentlich ein Bild von | einem Chamäleon.,images/fennec.jpg,8.506316666666667,gecko,4233|5344,Gecko|Gecko|Chamäleon,poor_folks_visual_world,Das ist eigentlich ein Bild von einem ...,2
396,Ist das ein Bild von einem Schloss?,Thu Nov 14 2019 18:44:15 GMT+0100 (Mitteleuropäische Normalzeit),doorlock.jpg,indeed,q_u_schloss.wav,hinge,9,images/puzzlepiece.jpg,das,Scharniergelenk,3,16505,Scharniergelenk,das,puzzlepiece,Schloss,starfish01,unreliable,163,1573753966295,critical,Das ist tatsächlich ein Bild von einem Scharniergelenk.,Schloss,21,Scharniergelenk,war eine schöne Studie!,images/starfish01.jpg,Hochschulabschluss,,u_t_scharniergelenk.wav,Scharniergelenk,Deutsch,5daf91f26c98f70015c6b76d,lock-hinge,hinge.jpg,weiblich,images/doorlock.jpg,11,1573753455916,Das ist | tatsächlich ein Bild von | einem Scharniergelenk.,images/hinge.jpg,8.506316666666667,lock,3725|4825,Schloss|Schloss|Scharniergelenk,poor_folks_visual_world,Das ist tatsächlich ein Bild von einem ...,7
396,Magst du auch das sehr schöne Ding mit den drei Lagen?,Thu Nov 14 2019 18:44:15 GMT+0100 (Mitteleuropäische Normalzeit),NA,NA,q_f_hochzeitskuchen.wav,NA,9,images/toysoldier01b.jpg,NA,NA,NA,16796,mirror02,NA,toysoldier01b,womenwashroomsign,weddingcake,filler,239,1573753966295,filler,"Ja, das ist ein schöner Hochzeitskuchen.",NA,21,weddingcake,war eine schöne Studie!,images/weddingcake.jpg,Hochschulabschluss,,f_hochzeitskuchen.wav,weddingcake,Deutsch,5daf91f26c98f70015c6b76d,wedding-cake,NA,weiblich,images/womenwashroomsign.jpg,12,1573753455916,"Ja, | das ist | ein schöner Hochzeitskuchen.",images/mirror02.jpg,8.506316666666667,NA,5962|4729,weddingcake|weddingcake|weddingcake,poor_folks_visual_world,"Ja, das ist ein schöner ...",7
396,"Bedeutet dieses Zeichen, dass man nicht gehen darf?",Thu Nov 14 2019 18:44:15 GMT+0100 (Mitteleuropäische Normalzeit),NA,NA,q_f_zeichen.wav,NA,9,images/donotwalksign.jpg,NA,NA,NA,12480,shoppingcart,NA,donotwalksign,key07,cartonofeggs,filler,217,1573753966295,filler,"Ja, dieses Zeichen bedeutet, dass man warten soll.",NA,21,donotwalksign,war eine schöne Studie!,images/cartonofeggs.jpg,Hochschulabschluss,,f_zeichen.wav,donotwalksign,Deutsch,5daf91f26c98f70015c6b76d,do-not-walk-sign,NA,weiblich,images/key07.jpg,13,1573753455916,"Ja, | dieses Zeichen bedeutet, | dass man warten soll.",images/shoppingcart.jpg,8.506316666666667,NA,4184|3967,donotwalksign|donotwalksign|donotwalksign,poor_folks_visual_world,"Ja, dieses ... bedeutet, dass man warten soll.",3
396,Ist das ein Bild von einem Schal?,Thu Nov 14 2019 18:44:15 GMT+0100 (Mitteleuropäische Normalzeit),scarf.jpg,actually,q_u_schal.wav,rug,9,images/flask.jpg,der,Teppich,2,15362,Teppich,der,flask,marker01a,Schal,unreliable,86,1573753966295,critical,Das ist eigentlich ein Bild von einem Schal.,Schal,21,Schal,war eine schöne Studie!,images/scarf.jpg,Hochschulabschluss,,u_e_schal.wav,Schal,Deutsch,5daf91f26c98f70015c6b76d,scarf-rug,rug01.jpg,weiblich,images/marker01a.jpg,14,1573753455916,Das ist | eigentlich ein Bild von | einem Schal.,images/rug01.jpg,8.506316666666667,scarf,4331|5323,Schal|Teppich|Schal,poor_folks_visual_world,Das ist eigentlich ein Bild von einem ...,9
396,Wie heißt das bunte Tier?,Thu Nov 14 2019 18:44:15 GMT+0100 (Mitteleuropäische Normalzeit),NA,NA,q_f_pfau.wav,NA,9,images/pugdog.jpg,NA,NA,NA,9024,swallow,NA,pugdog,peacock,seaturtle,filler,211,1573753966295,filler,Das ist ein Pfau.,NA,21,peacock,war eine schöne Studie!,images/seaturtle.jpg,Hochschulabschluss,,f_pfau.wav,peacock,Deutsch,5daf91f26c98f70015c6b76d,peacock,NA,weiblich,images/peacock.jpg,15,1573753455916,Das ist | ein Pfau.,images/swallow.jpg,8.506316666666667,NA,4343,peacock|peacock,poor_folks_visual_world,Das ist ein ...,2
396,Was ist das für ein Tier mit dem seltsamen Kopf?,Thu Nov 14 2019 18:44:15 GMT+0100 (Mitteleuropäische Normalzeit),NA,NA,q_f_tintenfisch.wav,NA,9,images/cuttlefish.jpg,NA,NA,NA,25152,mouse,NA,cuttlefish,kingfisher,grizzly,filler,202,1573753966295,filler,Das ist ein Tintenfisch.,NA,21,cuttlefish,war eine schöne Studie!,images/grizzly.jpg,Hochschulabschluss,,f_tintenfisch.wav,cuttlefish,Deutsch,5daf91f26c98f70015c6b76d,cuttlefish,NA,weiblich,images/kingfisher.jpg,16,1573753455916,Das ist | ein Tintenfisch.,images/mouse.jpg,8.506316666666667,NA,5202,cuttlefish|cuttlefish,poor_folks_visual_world,Das ist ein ...,1
396,Magst du auch das Ding mit der Blume?,Thu Nov 14 2019 18:44:15 GMT+0100 (Mitteleuropäische Normalzeit),NA,NA,q_f_gemaelde.wav,NA,9,images/cashregister01.jpg,NA,NA,NA,14302,painting,NA,cashregister01,exitsign,entrancegate,filler,241,1573753966295,filler,"Ja, das ist ein schönes Gemälde. ",NA,21,painting,war eine schöne Studie!,images/entrancegate.jpg,Hochschulabschluss,,f_gemaelde.wav,painting,Deutsch,5daf91f26c98f70015c6b76d,painting,NA,weiblich,images/exitsign.jpg,17,1573753455916,"Ja, | das ist | ein schönes Gemälde. ",images/painting.jpg,8.506316666666667,NA,4599|4466,painting|painting|painting,poor_folks_visual_world,"Ja, das ist ein schönes ...",7
396,Ist das ein Bild von einem Basketball?,Thu Nov 14 2019 18:44:15 GMT+0100 (Mitteleuropäische Normalzeit),basketball01.jpg,actually,q_r_basketball.wav,volleyball,9,images/skipole.jpg,der,Volleyball,2,14426,Volleyball,der,skipole,bowlingpin,Basketball,reliable,126,1573753966295,critical,Das ist eigentlich ein Bild von einem Volleyball.,Basketball,21,Volleyball,war eine schöne Studie!,images/basketball01.jpg,Hochschulabschluss,,r_e_volleyball.wav,Volleyball,Deutsch,5daf91f26c98f70015c6b76d,basketball-volleyball,volleyball.jpg,weiblich,images/bowlingpin.jpg,18,1573753455916,Das ist | eigentlich ein Bild von | einem Volleyball.,images/volleyball.jpg,8.506316666666667,basketball,5178|4176,Basketball|Volleyball|Volleyball,poor_folks_visual_world,Das ist eigentlich ein Bild von einem ...,3
396,Ist das ein Telefon?,Thu Nov 14 2019 18:44:15 GMT+0100 (Mitteleuropäische Normalzeit),NA,NA,q_f_walkietalkie.wav,NA,9,images/handcuffs.jpg,NA,NA,NA,16201,walkietalkie,NA,handcuffs,birdhouse,hibiscusflower02,filler,260,1573753966295,filler,"Nein, das ist ein Walkie-Talkie.",NA,21,walkietalkie,war eine schöne Studie!,images/hibiscusflower02.jpg,Hochschulabschluss,,f_walkietalkie.wav,walkietalkie,Deutsch,5daf91f26c98f70015c6b76d,walkie-talkie,NA,weiblich,images/birdhouse.jpg,19,1573753455916,"Nein, | das ist | ein Walkie-Talkie.",images/walkietalkie.jpg,8.506316666666667,NA,6402|5155,walkietalkie|birdhouse|walkietalkie,poor_folks_visual_world,"Nein, das ist ein ...",10
396,Ist das ein Bild von einem Handmixer?,Thu Nov 14 2019 18:44:15 GMT+0100 (Mitteleuropäische Normalzeit),handmixer01d.jpg,indeed,q_u_handmixer.wav,iron,9,images/mushroom01.jpg,das,Bügeleisen,1,14685,Bügeleisen,der,mushroom01,Handmixer,balloon01b,unreliable,197,1573753966295,critical,Das ist tatsächlich ein Bild von einem Bügeleisen.,Handmixer,21,Bügeleisen,war eine schöne Studie!,images/balloon01b.jpg,Hochschulabschluss,,u_t_buegeleisen.wav,Bügeleisen,Deutsch,5daf91f26c98f70015c6b76d,handmixer-iron,iron01b.jpg,weiblich,images/handmixer01d.jpg,20,1573753455916,Das ist | tatsächlich ein Bild von | einem Bügeleisen.,images/iron01b.jpg,8.506316666666667,handmixer,4938|3947,Handmixer|Handmixer|Bügeleisen,poor_folks_visual_world,Das ist tatsächlich ein Bild von einem ...,10
396,Magst du auch das weiße Tier?,Thu Nov 14 2019 18:44:15 GMT+0100 (Mitteleuropäische Normalzeit),NA,NA,q_f_suesserwal.wav,NA,9,images/tarantula.jpg,NA,NA,NA,11628,belugawhale,NA,tarantula,siamesecat,barnowl,filler,213,1573753966295,filler,"Ja, das ist ein süßer Waal.",NA,21,belugawhale,war eine schöne Studie!,images/barnowl.jpg,Hochschulabschluss,,f_süßerwal.wav,belugawhale,Deutsch,5daf91f26c98f70015c6b76d,beluga-whale,NA,weiblich,images/siamesecat.jpg,21,1573753455916,"Ja, | das ist | ein süßer Waal.",images/belugawhale.jpg,8.506316666666667,NA,3947|2166,belugawhale|belugawhale|belugawhale,poor_folks_visual_world,"Ja, das ist ein süßer ...",3
396,Magst du auch das bunte Ding?,Thu Nov 14 2019 18:44:15 GMT+0100 (Mitteleuropäische Normalzeit),NA,NA,q_f_geschenk.wav,NA,9,images/chest01.jpg,NA,NA,NA,11412,gift01,NA,chest01,patiochair,ironingboard01,filler,258,1573753966295,filler,"Ja, das ist ein schönes Geschenk.",NA,21,gift01,war eine schöne Studie!,images/ironingboard01.jpg,Hochschulabschluss,,f_geschenk.wav,gift01,Deutsch,5daf91f26c98f70015c6b76d,gift,NA,weiblich,images/patiochair.jpg,22,1573753455916,"Ja, | das ist | ein schönes Geschenk.",images/gift01.jpg,8.506316666666667,NA,3874|3570,gift01|gift01|gift01,poor_folks_visual_world,"Ja, das ist ein schönes ...",10
396,Ist das ein Bild von einer Knoblauchpresse?,Thu Nov 14 2019 18:44:15 GMT+0100 (Mitteleuropäische Normalzeit),garlicpress02a.jpg,indeed,q_u_knoblauchpresse.wav,grater,9,images/grater01a.jpg,die,Reibe,1,13494,battery02b,die,Reibe,mascarabrush,Knoblauchpresse,unreliable,169,1573753966295,critical,Das ist tatsächlich ein Bild von einer Reibe.,Knoblauchpresse,21,Reibe,war eine schöne Studie!,images/garlicpress02a.jpg,Hochschulabschluss,,u_t_reibe.wav,Reibe,Deutsch,5daf91f26c98f70015c6b76d,garlic-press-grater,grater01a.jpg,weiblich,images/mascarabrush.jpg,23,1573753455916,Das ist | tatsächlich ein Bild von | einer Reibe.,images/battery02b.jpg,8.506316666666667,garlic-press,4152|4055,Reibe|Reibe|Reibe,poor_folks_visual_world,Das ist tatsächlich ein Bild von einer ...,7
