submission_id,question,startDate,mentioned_file,DP,question_file,unmentioned_element,experiment_id,picture2,det_competitor,competitor,target_position,time_spent,option4,det_target,option2,option3,option1,condition,item_id,endTime,item_type,complete_answer,target,age,response,comments,picture1,education,QUD,answer_file,expected_response,languages,prolific_id,item_name,unmentioned_file,gender,picture3,trial_number,startTime,chunked_answer,picture4,timeSpent,mentioned_element,reaction_times,pictureChoices,trial_name,incomplete_answer,list
1,Ist das ein Stachelrochen?,Sat Oct 19 2019 07:32:39 GMT+0200 (CEST),NA,NA,q_f_pfeilschwanzkrebs.wav,NA,1,images/horseshoecrab.jpg,NA,NA,NA,9899,slug,NA,horseshoecrab,porcupine,butterfly,filler,215,1571463185948,filler,"Nein, das ist ein Pfeilschwanzkrebs, der hat eine harte Schale. ",NA,,slug,,images/butterfly.jpg,,,f_pfeilschwanzkrebs.wav,horseshoecrab,,asdfasdf,horseshoe-crab,NA,,images/porcupine.jpg,1,1571463159734,"Nein, | das ist | ein Pfeilschwanzkrebs, | der hat | eine harte Schale. ",images/slug.jpg,0.4369,NA,1367|1589|2837|1927,butterfly|horseshoecrab|slug|porcupine|slug,poor_folks_visual_world_training,"Nein, das ist ein ..., der hat eine harte Schale.",3
1,Ist das etwas was man zum Kämpfen benutzt?,Sat Oct 19 2019 07:32:39 GMT+0200 (CEST),NA,NA,q_f_boxhandschuh.wav,NA,1,images/stovetop.jpg,NA,NA,NA,4796,boxingglove01,NA,stovetop,hedgeshears,pedestriancrossingsign,filler,225,1571463185948,filler,"Ja, das ist ein Boxhandschuh.",NA,,stovetop,,images/pedestriancrossingsign.jpg,,,f_boxhandschuh.wav,boxingglove01,,asdfasdf,boxing-glove,NA,,images/hedgeshears.jpg,2,1571463159734,"Ja, | das ist | ein Boxhandschuh.",images/boxingglove01.jpg,0.4369,NA,1430|1846,hedgeshears|boxingglove01|stovetop,poor_folks_visual_world_training,"Ja, das ist ein ?",5
1,Gehört das auf Autoräder?,Sat Oct 19 2019 07:32:39 GMT+0200 (CEST),NA,NA,q_f_radkappe.wav,NA,1,images/hubcap.jpg,NA,NA,NA,5073,discoball,NA,hubcap,crown,exercisemachine,filler,242,1571463185948,filler,"Ja, das ist eine Radkappe.",NA,,discoball,,images/exercisemachine.jpg,,,f_radkappe.wav,hubcap,,asdfasdf,hubcap,NA,,images/crown.jpg,1,1571463159734,"Ja, | das ist | eine Radkappe.",images/discoball.jpg,0.4369,NA,1666|1358,exercisemachine|hubcap|discoball,poor_folks_visual_world,"Ja, das ist eine ...",7
2,"Findest du nicht, dass dieses Tier schöne Punkte hat?",Sat Oct 19 2019 07:56:36 GMT+0200 (Mitteleuropäische Sommerzeit),NA,NA,q_f_gepard.wav,NA,1,images/cormorant.jpg,NA,NA,NA,32115,swan,NA,cormorant,africanelephant,cheetah,filler,212,1571464770219,filler,"Ja, der Gepard hat schöne Flecken.",NA,36,cheetah,Deutsch,images/cheetah.jpg,Abitur,,f_gepard.wav,cheetah,,582630568061bd0001327245,cheetah,NA,weiblich,images/africanelephant.jpg,1,1571464596086,"Ja, | der Gepard hat | schöne Flecken.",images/swan.jpg,2.9022166666666664,NA,10125|15276,cheetah|cheetah|cheetah,poor_folks_visual_world_training,"Ja, der ... hat schöne Flecken.",2
2,Magst du auch das große Rad?,Sat Oct 19 2019 07:56:36 GMT+0200 (Mitteleuropäische Sommerzeit),NA,NA,q_f_wagenrad.wav,NA,1,images/menwashroomsign.jpg,NA,NA,NA,27704,wagonwheel,NA,menwashroomsign,aloe01,kidpicnictable,filler,232,1571464770219,filler,"Ja, das ist ein großes Wagenrad. ",NA,36,wagonwheel,Deutsch,images/kidpicnictable.jpg,Abitur,,f_wagenrad.wav,wagonwheel,,582630568061bd0001327245,wagon-wheel,NA,weiblich,images/aloe01.jpg,2,1571464596086,"Ja, | das ist | ein großes Wagenrad. ",images/wagonwheel.jpg,2.9022166666666664,NA,3286|20575,wagonwheel|wagonwheel|wagonwheel,poor_folks_visual_world_training,"Ja, das ist ein großes ...",6
2,Benutzt man das hier um Waffeln zu machen?,Sat Oct 19 2019 07:56:36 GMT+0200 (Mitteleuropäische Sommerzeit),NA,NA,q_f_waffeleisen.wav,NA,1,images/wafflemaker.jpg,NA,NA,NA,25526,chandelier,NA,wafflemaker,scooter,flower01,filler,248,1571464770219,filler,"Ja, das ist ein Waffeleisen.",NA,36,wafflemaker,Deutsch,images/flower01.jpg,Abitur,,f_waffeleisen.wav,wafflemaker,,582630568061bd0001327245,waffle-maker,NA,weiblich,images/scooter.jpg,1,1571464596086,"Ja, | das ist | ein Waffeleisen.",images/chandelier.jpg,2.9022166666666664,NA,3748|2452,wafflemaker|wafflemaker|wafflemaker,poor_folks_visual_world,"Ja, das ist ein ...",8
3,"Wie heißt das gelbe Ding, was man werfen kann?",Sat Oct 19 2019 06:58:38 GMT+0100 (Britische Sommerzeit),NA,NA,q_f_frisbee.wav,NA,1,images/trailer.jpg,NA,NA,NA,18191,shipinabottle,NA,trailer,frisbee,ferry,filler,219,1571464807227,filler,Das ist eine Frisbee. ,NA,23,frisbee,,images/ferry.jpg,Universitärer Abschluss,,f_frisbee.wav,frisbee,Deutsch,5c7158ed61dd7e0001a15bfa,frisbee,NA,männlich,images/frisbee.jpg,1,1571464718756,Das ist | eine Frisbee. ,images/shipinabottle.jpg,1.4745166666666667,NA,7248,frisbee|frisbee,poor_folks_visual_world_training,Das ist eine ...,4
3,"Ist das gelbe Ding, das, wovon wir Honig bekommen?",Sat Oct 19 2019 06:58:38 GMT+0100 (Britische Sommerzeit),NA,NA,q_f_bienenwabe.wav,NA,1,images/wallclock.jpg,NA,NA,NA,15442,honeycomb,NA,wallclock,machete,windshieldwiper,filler,230,1571464807227,filler,"Ja, das ist eine Bienenwabe.",NA,23,honeycomb,,images/windshieldwiper02.jpg,Universitärer Abschluss,,f_bienenwabe.wav,honeycomb,Deutsch,5c7158ed61dd7e0001a15bfa,honeycomb,NA,männlich,images/machete.jpg,2,1571464718756,"Ja, | das ist | eine Bienenwabe.",images/honeycomb.jpg,1.4745166666666667,NA,5772|3560,honeycomb|honeycomb|honeycomb,poor_folks_visual_world_training,"Ja, das ist eine ...",5
3,Magst du auch das weiße Tier?,Sat Oct 19 2019 06:58:38 GMT+0100 (Britische Sommerzeit),NA,NA,q_f_suesserwal.wav,NA,1,images/tarantula.jpg,NA,NA,NA,13319,belugawhale,NA,tarantula,siamesecat,barnowl,filler,213,1571464807227,filler,"Ja, das ist ein süßer Waal.",NA,23,belugawhale,,images/barnowl.jpg,Universitärer Abschluss,,f_süßerwal.wav,belugawhale,Deutsch,5c7158ed61dd7e0001a15bfa,beluga-whale,NA,männlich,images/siamesecat.jpg,1,1571464718756,"Ja, | das ist | ein süßer Waal.",images/belugawhale.jpg,1.4745166666666667,NA,5095|3672,belugawhale|belugawhale|belugawhale,poor_folks_visual_world,"Ja, das ist ein süßer ...",3
4,Magst du auch das Tier mit den schwarzen Punkten?,Sat Oct 19 2019 07:58:19 GMT+0200 (Mitteleuropäische Sommerzeit),NA,NA,q_f_marienkaefer.wav,NA,1,images/ostrich.jpg,NA,NA,NA,108610,sturgeon,NA,ostrich,ladybug03,zebra,filler,204,1571464994505,filler,"Ja, das ist ein sehr schöner Marienkäfer. ",NA,44,ladybug03,,images/zebra.jpg,Abitur,,f_marienkaefer.wav,ladybug03,Deutsch,5b3621b606f9f90001fb4734,ladybug,NA,weiblich,images/ladybug03.jpg,1,1571464699643,"Ja, | das ist | ein sehr schöner Marienkäfer. ",images/sturgeon.jpg,4.914366666666667,NA,5704|8105,ladybug03|ladybug03|ladybug03,poor_folks_visual_world_training,"Ja, das ist ein sehr schöner ...",1
4,Findest du das Tier mit der dicken Nase auch lustig?,Sat Oct 19 2019 07:58:19 GMT+0200 (Mitteleuropäische Sommerzeit),NA,NA,q_f_affe.wav,NA,1,images/giraffe.jpg,NA,NA,NA,10288,saintbernard,NA,giraffe,monarchbutterfly,proboscismonkey,filler,210,1571464994505,filler,"Ja, das ist ein lustiger Affee.",NA,44,proboscismonkey,,images/proboscismonkey.jpg,Abitur,,f_affe.wav,proboscismonkey,Deutsch,5b3621b606f9f90001fb4734,proboscis-monkey,NA,weiblich,images/monarchbutterfly.jpg,2,1571464699643,"Ja, | das ist | ein lustiger Affee.",images/saintbernard.jpg,4.914366666666667,NA,2936|2168,proboscismonkey|proboscismonkey|proboscismonkey,poor_folks_visual_world_training,"Ja, das ist ein lustiger ...",2
4,Ist das ein kleines Boot?,Sat Oct 19 2019 07:58:19 GMT+0200 (Mitteleuropäische Sommerzeit),NA,NA,q_f_windsurfbrett.wav,NA,1,images/windsurfboard.jpg,NA,NA,NA,9089,loppingshears,NA,windsurfboard,canoepaddle02,desktopcomputer,filler,254,1571464994505,filler,"Nein, das ist ein Windsurfbrett.",NA,44,windsurfboard,,images/desktopcomputer.jpg,Abitur,,f_windsurfbrett.wav,windsurfboard,Deutsch,5b3621b606f9f90001fb4734,windsurf-board,NA,weiblich,images/canoepaddle02.jpg,1,1571464699643,"Nein, | das ist | ein Windsurfbrett.",images/loppingshears.jpg,4.914366666666667,NA,1913|1744,windsurfboard|windsurfboard|windsurfboard,poor_folks_visual_world,"Nein, das ist ein ...",9
5,Magst du auch das weiße Tier?,Sat Oct 19 2019 08:06:00 GMT+0200 (Mitteleuropäische Sommerzeit),NA,NA,q_f_suesserwal.wav,NA,1,images/tarantula.jpg,NA,NA,NA,27127,belugawhale,NA,tarantula,siamesecat,barnowl,filler,213,1571465261012,filler,"Ja, das ist ein süßer Waal.",NA,27,belugawhale,,images/barnowl.jpg,Hochschulabschluss,,f_süßerwal.wav,belugawhale,Deutsch,5da810504dabf000125f82c3,beluga-whale,NA,männlich,images/siamesecat.jpg,1,1571465160382,"Ja, | das ist | ein süßer Waal.",images/belugawhale.jpg,1.6771666666666667,NA,3696|5279,belugawhale|belugawhale|belugawhale,poor_folks_visual_world_training,"Ja, das ist ein süßer ...",3
5,"Bedeutet dieses Zeichen, dass man nicht gehen darf?",Sat Oct 19 2019 08:06:00 GMT+0200 (Mitteleuropäische Sommerzeit),NA,NA,q_f_zeichen.wav,NA,1,images/donotwalksign.jpg,NA,NA,NA,8891,shoppingcart,NA,donotwalksign,key07,cartonofeggs,filler,217,1571465261012,filler,"Ja, dieses Zeichen bedeutet, dass man warten soll.",NA,27,donotwalksign,,images/cartonofeggs.jpg,Hochschulabschluss,,f_zeichen.wav,donotwalksign,Deutsch,5da810504dabf000125f82c3,do-not-walk-sign,NA,männlich,images/key07.jpg,2,1571465160382,"Ja, | dieses Zeichen bedeutet, | dass man warten soll.",images/shoppingcart.jpg,1.6771666666666667,NA,1656|2736,donotwalksign|donotwalksign|donotwalksign,poor_folks_visual_world_training,"Ja, dieses ... bedeutet, dass man warten soll.",3
5,Magst du auch das bunte Ding?,Sat Oct 19 2019 08:06:00 GMT+0200 (Mitteleuropäische Sommerzeit),NA,NA,q_f_serviette.wav,NA,1,images/cymbal.jpg,NA,NA,NA,10359,spotlight,NA,cymbal,outdoorchair,napkin,filler,246,1571465261012,filler,"Ja, das ist eine sehr schöne Serviette. ",NA,27,napkin,,images/napkin.jpg,Hochschulabschluss,,f_servierte.wav,napkin,Deutsch,5da810504dabf000125f82c3,napkin,NA,männlich,images/outdoorchair.jpg,1,1571465160382,"Ja, | das ist | eine sehr schöne Serviette. ",images/spotlight.jpg,1.6771666666666667,NA,1368|2255,napkin|napkin|napkin,poor_folks_visual_world,"Ja, das ist eine sehr schöne ...",8
6,Ist das ein Stachelrochen?,Sat Oct 19 2019 08:05:50 GMT+0200 (CEST),NA,NA,q_f_pfeilschwanzkrebs.wav,NA,1,images/horseshoecrab.jpg,NA,NA,NA,34945,slug,NA,horseshoecrab,porcupine,butterfly,filler,215,1571465275058,filler,"Nein, das ist ein Pfeilschwanzkrebs, der hat eine harte Schale. ",NA,26,horseshoecrab,,images/butterfly.jpg,Universitärer Abschluss,,f_pfeilschwanzkrebs.wav,horseshoecrab,Deutsch,5d62eceed989a4001a236e5d,horseshoe-crab,NA,männlich,images/porcupine.jpg,1,1571465150711,"Nein, | das ist | ein Pfeilschwanzkrebs, | der hat | eine harte Schale. ",images/slug.jpg,2.07245,NA,5353|4565|2613|2119,porcupine|porcupine|horseshoecrab|horseshoecrab|horseshoecrab,poor_folks_visual_world_training,"Nein, das ist ein ..., der hat eine harte Schale.",3
6,Wie heißt das bunte Ding?,Sat Oct 19 2019 08:05:50 GMT+0200 (CEST),NA,NA,q_f_zauberwuerfel.wav,NA,1,images/securitycamera.jpg,NA,NA,NA,24372,apron,NA,securitycamera,rubikcube,dishrack,filler,233,1571465275058,filler,Das ist ein Zauberwürfel.,NA,26,rubikcube,,images/dishrack.jpg,Universitärer Abschluss,,f_zauberwuerfel.wav,rubikcube,Deutsch,5d62eceed989a4001a236e5d,Rubiks-cube,NA,männlich,images/rubikcube.jpg,2,1571465150711,Das ist | ein Zauberwürfel.,images/apron.jpg,2.07245,NA,2004,rubikcube|rubikcube,poor_folks_visual_world_training,Das ist ein ...,6
6,Ist das ein Fisch?,Sat Oct 19 2019 08:05:50 GMT+0200 (CEST),NA,NA,q_f_wal.wav,NA,1,images/caribou02.jpg,NA,NA,NA,18217,scorpion,NA,caribou,asianelephant,whaleshark,filler,209,1571465275058,filler,"Nein, das ist ein Waal.",NA,26,whaleshark,,images/whaleshark.jpg,Universitärer Abschluss,,f_wal.wav,whaleshark,Deutsch,5d62eceed989a4001a236e5d,whale,NA,männlich,images/asianelephant.jpg,1,1571465150711,"Nein, | das ist | ein Waal.",images/scorpion.jpg,2.07245,NA,1910|3517,scorpion|scorpion|whaleshark,poor_folks_visual_world,"Nein, das ist ein ...",2
14,Ist das ein Spülbecken?,Sat Oct 19 2019 08:16:58 GMT+0200 (Mitteleuropäische Sommerzeit),NA,NA,q_f_wasserhahn.wav,NA,1,images/steamroller.jpg,NA,NA,NA,9708,flowerwreath,NA,steamroller,faucet,pin,filler,257,1571465914826,filler,"Nein, das ist ein Wasserhahn.",NA,25,faucet,0,images/pin.jpg,Abitur,,f_wasserhahn.wav,faucet,Deutsch,5bf0fc561e78580001dc43c3,faucet,NA,männlich,images/faucet.jpg,1,1571465818075,"Nein, | das ist | ein Wasserhahn.",images/flowerwreath.jpg,1.6125166666666666,NA,1566|1047,faucet|faucet|faucet,poor_folks_visual_world_training,"Nein, das ist ein ...",10
14,Was ist das mit dem Schabel für ein Tier?,Sat Oct 19 2019 08:16:58 GMT+0200 (Mitteleuropäische Sommerzeit),NA,NA,q_f_schnabeltier.wav,NA,1,images/platypus.jpg,NA,NA,NA,7002,crocodile,NA,platypus,greathornowl,cougar,filler,205,1571465914826,filler,Das ist ein Schnabeltier.,NA,25,platypus,0,images/cougar.jpg,Abitur,,f_schnabeltier.wav,platypus,Deutsch,5bf0fc561e78580001dc43c3,platypus,NA,männlich,images/greathornowl.jpg,2,1571465818075,Das ist | ein Schnabeltier.,images/crocodile.jpg,1.6125166666666666,NA,1079,platypus|platypus,poor_folks_visual_world_training,Das ist ein ...,1
14,Ist das große weiße Ding für die Toilette?,Sat Oct 19 2019 08:16:58 GMT+0200 (Mitteleuropäische Sommerzeit),NA,NA,q_f_klobuerste.wav,NA,1,images/toiletbrush.jpg,NA,NA,NA,9399,grill,NA,toiletbrush,strap,outdoorfireplace,filler,221,1571465914826,filler,"Ja, das ist eine Klobürste.",NA,25,toiletbrush,0,images/outdoorfireplace.jpg,Abitur,,f_klobuerste.wav,toiletbrush,Deutsch,5bf0fc561e78580001dc43c3,toilet-brush,NA,männlich,images/strap.jpg,1,1571465818075,"Ja, | das ist | eine Klobürste.",images/grill.jpg,1.6125166666666666,NA,1316|1206,toiletbrush|toiletbrush|toiletbrush,poor_folks_visual_world,"Ja, das ist eine ...",4
7,Kann man hiermit im Schnee spielen?,Sat Oct 19 2019 08:07:58 GMT+0200 (Mitteleuropäische Sommerzeit),NA,NA,q_f_snowboard.wav,NA,1,images/christmaslights.jpg,NA,NA,NA,29648,snowboard,NA,christmaslights,acousticguitar02,spinningtoy,filler,252,1571465421740,filler,"Ja, das ist ein Snowboard.",NA,25,snowboard,,images/spinningtoy.jpg,Abitur,,f_snowboard.wav,snowboard,Deutsch,5bf0fc561e78580001dc43c3,snowboard,NA,männlich,images/acousticguitar02.jpg,1,1571465278579,"Ja, | das ist | ein Snowboard.",images/snowboard.jpg,2.3860166666666665,NA,5185|5438,snowboard|snowboard|snowboard,poor_folks_visual_world_training,"Ja, das ist ein ...",9
7,"Ist das gelbe Ding, das, wovon wir Honig bekommen?",Sat Oct 19 2019 08:07:58 GMT+0200 (Mitteleuropäische Sommerzeit),NA,NA,q_f_bienenwabe.wav,NA,1,images/wallclock.jpg,NA,NA,NA,8365,honeycomb,NA,wallclock,machete,windshieldwiper,filler,230,1571465421740,filler,"Ja, das ist eine Bienenwabe.",NA,25,honeycomb,,images/windshieldwiper02.jpg,Abitur,,f_bienenwabe.wav,honeycomb,Deutsch,5bf0fc561e78580001dc43c3,honeycomb,NA,männlich,images/machete.jpg,2,1571465278579,"Ja, | das ist | eine Bienenwabe.",images/honeycomb.jpg,2.3860166666666665,NA,1157|1176,honeycomb|honeycomb|honeycomb,poor_folks_visual_world_training,"Ja, das ist eine ...",5
7,Ist das eine Geige?,Sat Oct 19 2019 08:07:58 GMT+0200 (Mitteleuropäische Sommerzeit),NA,NA,q_f_cello.wav,NA,1,images/coffeemachine.jpg,NA,NA,NA,11054,football,NA,coffeemachine,cello,towelrack,filler,228,1571465421740,filler,"Nein, das hier ist größer. Das ist ein Cello.",NA,25,cello,,images/towelrack.jpg,Abitur,,f_cello.wav,cello,Deutsch,5bf0fc561e78580001dc43c3,cello,NA,männlich,images/cello.jpg,1,1571465278579,"Nein, | das hier ist größer. | Das ist | ein Cello.",images/football.jpg,2.3860166666666665,NA,1638|1419|1638,cello|cello|cello|cello,poor_folks_visual_world,"Nein, das hier ist größer. Das ist ein ...",5
8,Magst du auch das sehr schöne Ding mit den drei Lagen?,Sat Oct 19 2019 08:01:20 GMT+0200 (Mitteleuropäische Sommerzeit),NA,NA,q_f_hochzeitskuchen.wav,NA,1,images/toysoldier01b.jpg,NA,NA,NA,27838,mirror02,NA,toysoldier01b,womenwashroomsign,weddingcake,filler,239,1571465432229,filler,"Ja, das ist ein schöner Hochzeitskuchen.",NA,21,weddingcake,,images/weddingcake.jpg,,,f_hochzeitskuchen.wav,weddingcake,Deutsch,5a79de1faa46dd00016b3a60,wedding-cake,NA,weiblich,images/womenwashroomsign.jpg,1,1571464880814,"Ja, | das ist | ein schöner Hochzeitskuchen.",images/mirror02.jpg,9.19025,NA,7247|6472,weddingcake|weddingcake|weddingcake,poor_folks_visual_world_training,"Ja, das ist ein schöner ...",7
8,Ist das ein Pinguin?,Sat Oct 19 2019 08:01:20 GMT+0200 (Mitteleuropäische Sommerzeit),NA,NA,q_f_pinguin.wav,NA,1,images/whitetiger.jpg,NA,NA,NA,11106,penguin,NA,whitetiger,cow,grasshopper,filler,207,1571465432229,filler,"Ja, das ist ein Pinguin.",NA,21,penguin,,images/grasshopper.jpg,,,f_pinguin.wav,penguin,Deutsch,5a79de1faa46dd00016b3a60,penguin,NA,weiblich,images/cow.jpg,2,1571464880814,"Ja, | das ist | ein Pinguin.",images/penguin.jpg,9.19025,NA,1471|1583,penguin|penguin|penguin,poor_folks_visual_world_training,"Ja, das ist ein ...",2
8,Ist das große weiße Ding für die Toilette?,Sat Oct 19 2019 08:01:20 GMT+0200 (Mitteleuropäische Sommerzeit),NA,NA,q_f_klobuerste.wav,NA,1,images/toiletbrush.jpg,NA,NA,NA,9493,grill,NA,toiletbrush,strap,outdoorfireplace,filler,221,1571465432229,filler,"Ja, das ist eine Klobürste.",NA,21,toiletbrush,,images/outdoorfireplace.jpg,,,f_klobuerste.wav,toiletbrush,Deutsch,5a79de1faa46dd00016b3a60,toilet-brush,NA,weiblich,images/strap.jpg,1,1571464880814,"Ja, | das ist | eine Klobürste.",images/grill.jpg,9.19025,NA,1752|1680,toiletbrush|toiletbrush|toiletbrush,poor_folks_visual_world,"Ja, das ist eine ...",4
9,Ist das ein kleines Boot?,Sat Oct 19 2019 08:09:36 GMT+0200 (Mitteleuropäische Sommerzeit),NA,NA,q_f_windsurfbrett.wav,NA,1,images/windsurfboard.jpg,NA,NA,NA,21076,loppingshears,NA,windsurfboard,canoepaddle02,desktopcomputer,filler,254,1571465441133,filler,"Nein, das ist ein Windsurfbrett.",NA,23,windsurfboard,,images/desktopcomputer.jpg,Hochschulabschluss,,f_windsurfbrett.wav,windsurfboard,Deutsch,5c03a21540207800014af27f,windsurf-board,NA,männlich,images/canoepaddle02.jpg,1,1571465376290,"Nein, | das ist | ein Windsurfbrett.",images/loppingshears.jpg,1.0807166666666668,NA,5070|7850,windsurfboard|windsurfboard|windsurfboard,poor_folks_visual_world_training,"Nein, das ist ein ...",9
9,"Findest du nicht, dass dieses hier stachelig ist?",Sat Oct 19 2019 08:09:36 GMT+0200 (Mitteleuropäische Sommerzeit),NA,NA,q_f_kakteen.wav,NA,1,images/locker.jpg,NA,NA,NA,6885,soccercleat01,NA,locker,cactus,safetyglasses,filler,220,1571465441133,filler,"Ja, Kakteen sind meistens sehr stachelig.",NA,23,cactus,,images/safetyglasses.jpg,Hochschulabschluss,,f_kakteen.wav,cactus,Deutsch,5c03a21540207800014af27f,cactus,NA,männlich,images/cactus.jpg,2,1571465376290,"Ja, | Kakteen sind meistens | sehr stachelig.",images/soccercleat01.jpg,1.0807166666666668,NA,1661|1475,cactus|cactus|cactus,poor_folks_visual_world_training,"Ja, ... sind meistens sehr stachelig.",4
9,Magst du auch das sehr schöne Ding mit den drei Lagen?,Sat Oct 19 2019 08:09:36 GMT+0200 (Mitteleuropäische Sommerzeit),NA,NA,q_f_hochzeitskuchen.wav,NA,1,images/toysoldier01b.jpg,NA,NA,NA,8002,mirror02,NA,toysoldier01b,womenwashroomsign,weddingcake,filler,239,1571465441133,filler,"Ja, das ist ein schöner Hochzeitskuchen.",NA,23,weddingcake,,images/weddingcake.jpg,Hochschulabschluss,,f_hochzeitskuchen.wav,weddingcake,Deutsch,5c03a21540207800014af27f,wedding-cake,NA,männlich,images/womenwashroomsign.jpg,1,1571465376290,"Ja, | das ist | ein schöner Hochzeitskuchen.",images/mirror02.jpg,1.0807166666666668,NA,1851|1766,weddingcake|weddingcake|weddingcake,poor_folks_visual_world,"Ja, das ist ein schöner ...",7
10,Ist das ein Telefon?,Sat Oct 19 2019 08:07:23 GMT+0200 (Mitteleuropäische Sommerzeit),NA,NA,q_f_walkietalkie.wav,NA,1,images/handcuffs.jpg,NA,NA,NA,32894,walkietalkie,NA,handcuffs,birdhouse,hibiscusflower02,filler,260,1571465594523,filler,"Nein, das ist ein Walkie-Talkie.",NA,35,walkietalkie,,images/hibiscusflower02.jpg,Abitur,,f_walkietalkie.wav,walkietalkie,Deutsch,5cb162ae9df7a00017d1272c,walkie-talkie,NA,männlich,images/birdhouse.jpg,1,1571465243215,"Nein, | das ist | ein Walkie-Talkie.",images/walkietalkie.jpg,5.855133333333334,NA,15926|4528,walkietalkie|walkietalkie|walkietalkie,poor_folks_visual_world_training,"Nein, das ist ein ...",10
10,Kann man hiermit im Schnee spielen?,Sat Oct 19 2019 08:07:23 GMT+0200 (Mitteleuropäische Sommerzeit),NA,NA,q_f_snowboard.wav,NA,1,images/christmaslights.jpg,NA,NA,NA,26902,snowboard,NA,christmaslights,acousticguitar02,spinningtoy,filler,252,1571465594523,filler,"Ja, das ist ein Snowboard.",NA,35,snowboard,,images/spinningtoy.jpg,Abitur,,f_snowboard.wav,snowboard,Deutsch,5cb162ae9df7a00017d1272c,snowboard,NA,männlich,images/acousticguitar02.jpg,2,1571465243215,"Ja, | das ist | ein Snowboard.",images/snowboard.jpg,5.855133333333334,NA,6041|3071,snowboard|snowboard|snowboard,poor_folks_visual_world_training,"Ja, das ist ein ...",9
10,Ist das ein Stachelrochen?,Sat Oct 19 2019 08:07:23 GMT+0200 (Mitteleuropäische Sommerzeit),NA,NA,q_f_pfeilschwanzkrebs.wav,NA,1,images/horseshoecrab.jpg,NA,NA,NA,45350,slug,NA,horseshoecrab,porcupine,butterfly,filler,215,1571465594523,filler,"Nein, das ist ein Pfeilschwanzkrebs, der hat eine harte Schale. ",NA,35,horseshoecrab,,images/butterfly.jpg,Abitur,,f_pfeilschwanzkrebs.wav,horseshoecrab,Deutsch,5cb162ae9df7a00017d1272c,horseshoe-crab,NA,männlich,images/porcupine.jpg,1,1571465243215,"Nein, | das ist | ein Pfeilschwanzkrebs, | der hat | eine harte Schale. ",images/slug.jpg,5.855133333333334,NA,3256|6687|5296|3439,horseshoecrab|horseshoecrab|horseshoecrab|horseshoecrab|horseshoecrab,poor_folks_visual_world,"Nein, das ist ein ..., der hat eine harte Schale.",3
11,Wie heißt das große gelbe Ding?,Sat Oct 19 2019 08:14:28 GMT+0200 (Mitteleuropäische Sommerzeit),NA,NA,q_f_bulldozer.wav,NA,1,images/bust.jpg,NA,NA,NA,10878,bulldozer,NA,bust,handbrush02,fireplace,filler,256,1571465895886,filler,Das ist ein Bulldozer.,NA,52,bulldozer,,images/fireplace.jpg,Hochschulabschluss,,f_bulldozer.wav,bulldozer,Deutsch,5d6fda2bde432b0019b19ba7,bulldozer,NA,männlich,images/handbrush02.jpg,1,1571465668976,Das ist | ein Bulldozer.,images/bulldozer.jpg,3.781833333333333,NA,5247,bulldozer|bulldozer,poor_folks_visual_world_training,Das ist ein ...,10
11,Ist das eine Türglocke?,Sat Oct 19 2019 08:14:28 GMT+0200 (Mitteleuropäische Sommerzeit),NA,NA,q_f_klingel.wav,NA,1,images/cakeplatter.jpg,NA,NA,NA,25856,powerline,NA,cakeplatter,callbell,skippingrope,filler,245,1571465895886,filler,"Nein, das ist eine Klingel.",NA,52,callbell,,images/skippingrope.jpg,Hochschulabschluss,,f_klingel.wav,callbell,Deutsch,5d6fda2bde432b0019b19ba7,call-bell,NA,männlich,images/callbell.jpg,2,1571465668976,"Nein, | das ist | eine Klingel.",images/powerline.jpg,3.781833333333333,NA,11773|7860,callbell|callbell|callbell,poor_folks_visual_world_training,"Nein, das ist eine ...",8
11,Ist das eine Geige?,Sat Oct 19 2019 08:14:28 GMT+0200 (Mitteleuropäische Sommerzeit),NA,NA,q_f_cello.wav,NA,1,images/coffeemachine.jpg,NA,NA,NA,26544,football,NA,coffeemachine,cello,towelrack,filler,228,1571465895886,filler,"Nein, das hier ist größer. Das ist ein Cello.",NA,52,cello,,images/towelrack.jpg,Hochschulabschluss,,f_cello.wav,cello,Deutsch,5d6fda2bde432b0019b19ba7,cello,NA,männlich,images/cello.jpg,1,1571465668976,"Nein, | das hier ist größer. | Das ist | ein Cello.",images/football.jpg,3.781833333333333,NA,6763|8259|6322,cello|cello|cello|cello,poor_folks_visual_world,"Nein, das hier ist größer. Das ist ein ...",5
23,Ist das ein Lieferwagen?,Sat Oct 19 2019 11:35:10 GMT+0200 (Central European Summer Time),NA,NA,q_f_lieferwagen.wav,NA,1,images/microphone01.jpg,NA,NA,NA,12231,pitchfork,NA,microphone01,mailtruck,projectorscreen,filler,244,1571477947833,filler,"Ja, das ist ein Lieferwagen.",NA,28,mailtruck,,images/projectorscreen.jpg,Abitur,,f_lieferwagen.wav,mailtruck,Deutsch,5b5ef728e3b84d0001521abf,delivery-truck,NA,männlich,images/mailtruck.jpg,1,1571477710535,"Ja, | das ist | ein Lieferwagen.",images/pitchfork.jpg,3.9549666666666665,NA,3691|1482,mailtruck|mailtruck|mailtruck,poor_folks_visual_world_training,"Ja, das ist ein ...",8
23,Magst du auch das blau und gelb gefärbte Ding?,Sat Oct 19 2019 11:35:10 GMT+0200 (Central European Summer Time),NA,NA,q_f_murmel.wav,NA,1,images/marble.jpg,NA,NA,NA,9490,powerchair,NA,marble,lintroller,waterwalve,filler,235,1571477947833,filler,"Ja, das ist eine schöne Murmel.",NA,28,marble,,images/watervalve.jpg,Abitur,,f_murmel.wav,marble,Deutsch,5b5ef728e3b84d0001521abf,marble,NA,männlich,images/lintroller.jpg,2,1571477710535,"Ja, | das ist | eine schöne Murmel.",images/powerchair.jpg,3.9549666666666665,NA,1971|2102,marble|marble|marble,poor_folks_visual_world_training,"Ja, das ist eine schöne ...",6
23,Benutzt man das hier am Strand?,Sat Oct 19 2019 11:35:10 GMT+0200 (Central European Summer Time),NA,NA,q_f_sonnenschirm.wav,NA,1,images/beachumbrella01.jpg,NA,NA,NA,8387,whiteout,NA,beachumbrella01,boxtrailer,muffintray01,filler,250,1571477947833,filler,"Ja, das ist ein Sonnenschirm.",NA,28,beachumbrella01,,images/muffintray01.jpg,Abitur,,f_sonnenschirm.wav,beachumbrella01,Deutsch,5b5ef728e3b84d0001521abf,beach-umbrella,NA,männlich,images/boxtrailer.jpg,1,1571477710535,"Ja, | das ist | ein Sonnenschirm.",images/whiteout.jpg,3.9549666666666665,NA,2063|1678,beachumbrella01|beachumbrella01|beachumbrella01,poor_folks_visual_world,"Ja, das ist ein ...",9
23,Ist das ein Bild von einem Fuchs?,Sat Oct 19 2019 11:35:10 GMT+0200 (Central European Summer Time),redfox.jpg,indeed,q_r_fuchs.wav,raccoon,1,images/raccoon.jpg,der,Waschbär,1,7328,falcon,der,Waschbär,seal,Fuchs,reliable,9,1571477947833,critical,Das ist tatsächlich ein Bild von einem Fuchs.,Fuchs,28,Fuchs,,images/redfox.jpg,Abitur,,r_t_fuchs.wav,Fuchs,Deutsch,5b5ef728e3b84d0001521abf,fox-raccoon,raccoon.jpg,männlich,images/seal.jpg,2,1571477710535,Das ist | tatsächlich ein Bild von | einem Fuchs.,images/falcon.jpg,3.9549666666666665,fox,1679|1817,Fuchs|Fuchs|Fuchs,poor_folks_visual_world,Das ist tatsächlich ein Bild von einem ...,1
23,Ist das ein Boot?,Sat Oct 19 2019 11:35:10 GMT+0200 (Central European Summer Time),NA,NA,q_f_boot.wav,NA,1,images/aquarium.jpg,NA,NA,NA,7871,halogenlightbulb,NA,aquarium,officecabinet,boat,filler,236,1571477947833,filler,"Ja, das ist ein Boot. ",NA,28,boat,,images/boat.jpg,Abitur,,f_boot.wav,boat,Deutsch,5b5ef728e3b84d0001521abf,boat,NA,männlich,images/officecabinet.jpg,3,1571477710535,"Ja, | das ist | ein Boot. ",images/halogenlightbulb.jpg,3.9549666666666665,NA,1278|2563,boat|boat|boat,poor_folks_visual_world,"Ja, das ist ein ...",6
23,Macht man hiermit den Boden sauber?,Sat Oct 19 2019 11:35:10 GMT+0200 (Central European Summer Time),NA,NA,q_f_staubsauger.wav,NA,1,images/flipflop01b.jpg,NA,NA,NA,5943,drumset,NA,flipflop01b,curtain,vacuumcleaner01,filler,240,1571477947833,filler,"Ja, das ist ein Staubsauger.",NA,28,vacuumcleaner01,,images/vacuumcleaner01.jpg,Abitur,,f_staubsauger.wav,vacuumcleaner01,Deutsch,5b5ef728e3b84d0001521abf,vacuum-cleaner,NA,männlich,images/curtain.jpg,4,1571477710535,"Ja, | das ist | ein Staubsauger.",images/drumset.jpg,3.9549666666666665,NA,1405|1386,vacuumcleaner01|vacuumcleaner01|vacuumcleaner01,poor_folks_visual_world,"Ja, das ist ein ...",7
23,Ist das ein Bild von einem Papierflieger?,Sat Oct 19 2019 11:35:10 GMT+0200 (Central European Summer Time),paperairplane.jpg,indeed,q_r_papierflieger.wav,kite,1,images/paperairplane.jpg,der,Drachen,3,8612,magneticcompass,das,Papierflieger,centurionhelmet,Drache,reliable,23,1571477947833,critical,Das ist tatsächlich ein Bild von einem Papierflieger.,Papierflieger,28,Papierflieger,,images/kite.jpg,Abitur,,r_t_papierflieger.wav,Papierflieger,Deutsch,5b5ef728e3b84d0001521abf,paper-plane-kite,kite.jpg,männlich,images/centurionhelmet.jpg,5,1571477710535,Das ist | tatsächlich ein Bild von | einem Papierflieger.,images/magneticcompass.jpg,3.9549666666666665,paper-plane,2494|1467,Papierflieger|Papierflieger|Papierflieger,poor_folks_visual_world,Das ist tatsächlich ein Bild von einem ...,3
23,Magst du auch das sehr schöne Ding mit den drei Lagen?,Sat Oct 19 2019 11:35:10 GMT+0200 (Central European Summer Time),NA,NA,q_f_hochzeitskuchen.wav,NA,1,images/toysoldier01b.jpg,NA,NA,NA,6720,mirror02,NA,toysoldier01b,womenwashroomsign,weddingcake,filler,239,1571477947833,filler,"Ja, das ist ein schöner Hochzeitskuchen.",NA,28,weddingcake,,images/weddingcake.jpg,Abitur,,f_hochzeitskuchen.wav,weddingcake,Deutsch,5b5ef728e3b84d0001521abf,wedding-cake,NA,männlich,images/womenwashroomsign.jpg,6,1571477710535,"Ja, | das ist | ein schöner Hochzeitskuchen.",images/mirror02.jpg,3.9549666666666665,NA,1455|1539,weddingcake|weddingcake|weddingcake,poor_folks_visual_world,"Ja, das ist ein schöner ...",7
23,Ist das ein Bild von einem Hai?,Sat Oct 19 2019 11:35:10 GMT+0200 (Central European Summer Time),sandbarshark.jpg,indeed,q_r_hai.wav,dolphin,1,images/squid.jpg,der,Delphin,4,6867,Hai,der,squid,cardinal,Delphin,reliable,12,1571477947833,critical,Das ist tatsächlich ein Bild von einem Hai.,Hai,28,Hai,,images/dolphin01.jpg,Abitur,,r_t_hai.wav,Hai,Deutsch,5b5ef728e3b84d0001521abf,shark-dolphin,dolphin01.jpg,männlich,images/cardinal.jpg,7,1571477710535,Das ist | tatsächlich ein Bild von | einem Hai.,images/sandbarshark.jpg,3.9549666666666665,shark,1594|1046,Hai|Hai|Hai,poor_folks_visual_world,Das ist tatsächlich ein Bild von einem ...,2
23,"Ist das gelbe Ding, das, wovon wir Honig bekommen?",Sat Oct 19 2019 11:35:10 GMT+0200 (Central European Summer Time),NA,NA,q_f_bienenwabe.wav,NA,1,images/wallclock.jpg,NA,NA,NA,5836,honeycomb,NA,wallclock,machete,windshieldwiper,filler,230,1571477947833,filler,"Ja, das ist eine Bienenwabe.",NA,28,honeycomb,,images/windshieldwiper02.jpg,Abitur,,f_bienenwabe.wav,honeycomb,Deutsch,5b5ef728e3b84d0001521abf,honeycomb,NA,männlich,images/machete.jpg,8,1571477710535,"Ja, | das ist | eine Bienenwabe.",images/honeycomb.jpg,3.9549666666666665,NA,1251|980,honeycomb|honeycomb|honeycomb,poor_folks_visual_world,"Ja, das ist eine ...",5
23,Magst du auch das bunte Ding?,Sat Oct 19 2019 11:35:10 GMT+0200 (Central European Summer Time),NA,NA,q_f_geschenk.wav,NA,1,images/chest01.jpg,NA,NA,NA,5594,gift01,NA,chest01,patiochair,ironingboard01,filler,258,1571477947833,filler,"Ja, das ist ein schönes Geschenk.",NA,28,gift01,,images/ironingboard01.jpg,Abitur,,f_geschenk.wav,gift01,Deutsch,5b5ef728e3b84d0001521abf,gift,NA,männlich,images/patiochair.jpg,9,1571477710535,"Ja, | das ist | ein schönes Geschenk.",images/gift01.jpg,3.9549666666666665,NA,1325|1385,gift01|gift01|gift01,poor_folks_visual_world,"Ja, das ist ein schönes ...",10
23,Ist das ein Bild von einem Fahrrad?,Sat Oct 19 2019 11:35:10 GMT+0200 (Central European Summer Time),bicycle.jpg,indeed,q_r_fahrrad.wav,motorbike,1,images/motorcycle.jpg,das,Motorrad,4,5092,totempole,das,Motorrad,Fahrrad,bookshelf,reliable,24,1571477947833,critical,Das ist tatsächlich ein Bild von einem Fahrrad.,Fahrrad,28,Fahrrad,,images/bookshelf.jpg,Abitur,,r_t_fahrrad.wav,Fahrrad,Deutsch,5b5ef728e3b84d0001521abf,bicycle-motorbike,motorcycle.jpg,männlich,images/bicycle.jpg,10,1571477710535,Das ist | tatsächlich ein Bild von | einem Fahrrad.,images/totempole.jpg,3.9549666666666665,bicycle,1254|1089,Fahrrad|Fahrrad|Fahrrad,poor_folks_visual_world,Das ist tatsächlich ein Bild von einem ...,3
23,Ist das ein Bild von einem Basketball?,Sat Oct 19 2019 11:35:10 GMT+0200 (Central European Summer Time),basketball01.jpg,actually,q_r_basketball.wav,volleyball,1,images/skipole.jpg,der,Volleyball,2,7520,Volleyball,der,skipole,bowlingpin,Basketball,reliable,126,1571477947833,critical,Das ist eigentlich ein Bild von einem Volleyball.,Basketball,28,Volleyball,,images/basketball01.jpg,Abitur,,r_e_volleyball.wav,Volleyball,Deutsch,5b5ef728e3b84d0001521abf,basketball-volleyball,volleyball.jpg,männlich,images/bowlingpin.jpg,11,1571477710535,Das ist | eigentlich ein Bild von | einem Volleyball.,images/volleyball.jpg,3.9549666666666665,basketball,2839|1165,Basketball|Volleyball|Volleyball,poor_folks_visual_world,Das ist eigentlich ein Bild von einem ...,3
23,Benutzt man das um Müll zu recyclen?,Sat Oct 19 2019 11:35:10 GMT+0200 (Central European Summer Time),NA,NA,q_f_kiste.wav,NA,1,images/recyclingbin.jpg,NA,NA,NA,5501,kiwi03,NA,recyclingbin,lily,skateboard,filler,237,1571477947833,filler,"Ja, das ist eine Kiste zum Wiederverwerten.",NA,28,recyclingbin,,images/skateboard.jpg,Abitur,,f_kistewiederverwerten.wav,recyclingbin,Deutsch,5b5ef728e3b84d0001521abf,recycling-bin,NA,männlich,images/lily.jpg,12,1571477710535,"Ja, | das ist | eine Kiste zum Wiederverwerten.",images/kiwi03.jpg,3.9549666666666665,NA,1318|1318,recyclingbin|recyclingbin|recyclingbin,poor_folks_visual_world,"Ja, das ist eine ... zum Wiederverwerten.",7
23,"Bedeutet dieses Zeichen, dass man nicht gehen darf?",Sat Oct 19 2019 11:35:10 GMT+0200 (Central European Summer Time),NA,NA,q_f_zeichen.wav,NA,1,images/donotwalksign.jpg,NA,NA,NA,7855,shoppingcart,NA,donotwalksign,key07,cartonofeggs,filler,217,1571477947833,filler,"Ja, dieses Zeichen bedeutet, dass man warten soll.",NA,28,donotwalksign,,images/cartonofeggs.jpg,Abitur,,f_zeichen.wav,donotwalksign,Deutsch,5b5ef728e3b84d0001521abf,do-not-walk-sign,NA,männlich,images/key07.jpg,13,1571477710535,"Ja, | dieses Zeichen bedeutet, | dass man warten soll.",images/shoppingcart.jpg,3.9549666666666665,NA,1860|1985,donotwalksign|donotwalksign|donotwalksign,poor_folks_visual_world,"Ja, dieses ... bedeutet, dass man warten soll.",3
23,Ist das ein Bild von einem Schneemann?,Sat Oct 19 2019 11:35:10 GMT+0200 (Central European Summer Time),snowman.jpg,actually,q_r_schneemann.wav,garden-gnome,1,images/turnstile.jpg,der,Gartenzwerg,2,8823,Schneemann,der,turnstile,guitarcase,Gartenzwerg,reliable,122,1571477947833,critical,Das ist eigentlich ein Bild von einem Gartenzwerg.,Schneemann,28,Gartenzwerg,,images/gardengnome02.jpg,Abitur,,r_e_gartenzwerg.wav,Gartenzwerg,Deutsch,5b5ef728e3b84d0001521abf,snowman-garden-gnome,gardengnome02.jpg,männlich,images/guitarcase.jpg,14,1571477710535,Das ist | eigentlich ein Bild von | einem Gartenzwerg.,images/snowman.jpg,3.9549666666666665,snowman,2686|1840,Schneemann|Gartenzwerg|Gartenzwerg,poor_folks_visual_world,Das ist eigentlich ein Bild von einem ...,3
23,"Findest du nicht, dass dieses Tier schöne Punkte hat?",Sat Oct 19 2019 11:35:10 GMT+0200 (Central European Summer Time),NA,NA,q_f_gepard.wav,NA,1,images/cormorant.jpg,NA,NA,NA,5730,swan,NA,cormorant,africanelephant,cheetah,filler,212,1571477947833,filler,"Ja, der Gepard hat schöne Flecken.",NA,28,cheetah,,images/cheetah.jpg,Abitur,,f_gepard.wav,cheetah,Deutsch,5b5ef728e3b84d0001521abf,cheetah,NA,männlich,images/africanelephant.jpg,15,1571477710535,"Ja, | der Gepard hat | schöne Flecken.",images/swan.jpg,3.9549666666666665,NA,1193|1316,cheetah|cheetah|cheetah,poor_folks_visual_world,"Ja, der ... hat schöne Flecken.",2
23,Ist das ein Spülbecken?,Sat Oct 19 2019 11:35:10 GMT+0200 (Central European Summer Time),NA,NA,q_f_wasserhahn.wav,NA,1,images/steamroller.jpg,NA,NA,NA,7317,flowerwreath,NA,steamroller,faucet,pin,filler,257,1571477947833,filler,"Nein, das ist ein Wasserhahn.",NA,28,faucet,,images/pin.jpg,Abitur,,f_wasserhahn.wav,faucet,Deutsch,5b5ef728e3b84d0001521abf,faucet,NA,männlich,images/faucet.jpg,16,1571477710535,"Nein, | das ist | ein Wasserhahn.",images/flowerwreath.jpg,3.9549666666666665,NA,1442|1469,pin|pin|faucet,poor_folks_visual_world,"Nein, das ist ein ...",10
23,Wie heißt das große gelbe Ding?,Sat Oct 19 2019 11:35:10 GMT+0200 (Central European Summer Time),NA,NA,q_f_bulldozer.wav,NA,1,images/bust.jpg,NA,NA,NA,5838,bulldozer,NA,bust,handbrush02,fireplace,filler,256,1571477947833,filler,Das ist ein Bulldozer.,NA,28,bulldozer,,images/fireplace.jpg,Abitur,,f_bulldozer.wav,bulldozer,Deutsch,5b5ef728e3b84d0001521abf,bulldozer,NA,männlich,images/handbrush02.jpg,17,1571477710535,Das ist | ein Bulldozer.,images/bulldozer.jpg,3.9549666666666665,NA,1314,bulldozer|bulldozer,poor_folks_visual_world,Das ist ein ...,10
23,Ist das ein Bild von einem Klappstuhl?,Sat Oct 19 2019 11:35:10 GMT+0200 (Central European Summer Time),foldingchair.jpg,indeed,q_r_klappstuhl.wav,stool,1,images/accordion01.jpg,der,Hocker,2,6199,Hocker,der,accordion01,skihelmet01,Klappstuhl,reliable,42,1571477947833,critical,Das ist tatsächlich ein Bild von einem Klappstuhl.,Klappstuhl,28,Klappstuhl,,images/foldingchair.jpg,Abitur,,r_t_klappstuhl.wav,Klappstuhl,Deutsch,5b5ef728e3b84d0001521abf,chair-stool,stool01.jpg,männlich,images/skihelmet01.jpg,18,1571477710535,Das ist | tatsächlich ein Bild von | einem Klappstuhl.,images/stool01.jpg,3.9549666666666665,chair,1755|1457,Klappstuhl|Klappstuhl|Klappstuhl,poor_folks_visual_world,Das ist tatsächlich ein Bild von einem ...,5
23,"Ist das das große Ding, was wir am Strand gesehen haben?",Sat Oct 19 2019 11:35:10 GMT+0200 (Central European Summer Time),NA,NA,q_f_leuchtturm.wav,NA,1,images/barbecuelighter.jpg,NA,NA,NA,6069,bowtie,NA,barbecuelighter,lunchbag,lighthouse,filler,229,1571477947833,filler,"Ja, das ist ein Leuchtturm.",NA,28,lighthouse,,images/lighthouse.jpg,Abitur,,f_leuchtturm.wav,lighthouse,Deutsch,5b5ef728e3b84d0001521abf,lighthouse,NA,männlich,images/lunchbag.jpg,19,1571477710535,"Ja, | das ist | ein Leuchtturm.",images/bowtie.jpg,3.9549666666666665,NA,1506|1065,lighthouse|lighthouse|lighthouse,poor_folks_visual_world,"Ja, das ist ein ...",5
23,Ist das ein Bild von einem Panda?,Sat Oct 19 2019 11:35:10 GMT+0200 (Central European Summer Time),panda.jpg,actually,q_r_panda.wav,polar-bear,1,images/polarbear.jpg,der,Eisbär,2,8749,alligator,der,Eisbär,Panda,warthog,reliable,106,1571477947833,critical,Das ist eigentlich ein Bild von einem Eisbär.,Panda,28,Eisbär,,images/warthog.jpg,Abitur,,r_e_eisbaer.wav,Eisbär,Deutsch,5b5ef728e3b84d0001521abf,panda-polar-bear,polarbear.jpg,männlich,images/panda.jpg,20,1571477710535,Das ist | eigentlich ein Bild von | einem Eisbär.,images/alligator.jpg,3.9549666666666665,panda,2577|2428,Panda|Eisbär|Eisbär,poor_folks_visual_world,Das ist eigentlich ein Bild von einem ...,1
23,Was ist das für ein Tier mit den langen Hörnern?,Sat Oct 19 2019 11:35:10 GMT+0200 (Central European Summer Time),NA,NA,q_f_nyala.wav,NA,1,images/nyala.jpg,NA,NA,NA,7725,dalmatian,NA,nyala,stuffedpuffin,heron01,filler,214,1571477947833,filler,Ich glaube das ist ein Nyala.,NA,28,nyala,,images/heron01.jpg,Abitur,,f_nyala.wav,nyala,Deutsch,5b5ef728e3b84d0001521abf,nyala,NA,männlich,images/stuffedpuffin.jpg,21,1571477710535,"Ich glaube, | das ist | ein Nyala.",images/dalmatian.jpg,3.9549666666666665,NA,1407|1355,nyala|nyala|nyala,poor_folks_visual_world,Ich glaube das ist ein ...,3
23,Findest du das Ding mit dem Totenkopf auch gruselig?,Sat Oct 19 2019 11:35:10 GMT+0200 (Central European Summer Time),NA,NA,q_f_piratenflagge.wav,NA,1,images/rose.jpg,NA,NA,NA,9576,chefshat,NA,rose,pirateflag,trumpet,filler,216,1571477947833,filler,"Ja, die Piratenflagge ist ein bisschen gruselig.",NA,28,pirateflag,,images/trumpet.jpg,Abitur,,f_piratenflagge.wav,pirateflag,Deutsch,5b5ef728e3b84d0001521abf,pirate-flag,NA,männlich,images/pirateflag.jpg,22,1571477710535,"Ja, | die Piratenflagge ist | ein bisschen gruselig.",images/chefshat.jpg,3.9549666666666665,NA,1474|1160,pirateflag|pirateflag|pirateflag,poor_folks_visual_world,"Ja, die ... ist ein bisschen gruselig.",3
23,Ist das ein Bild von einem Turm?,Sat Oct 19 2019 11:35:10 GMT+0200 (Central European Summer Time),tower.jpg,actually,q_r_turm.wav,wind-turbine,1,images/gasburner.jpg,das,Windrad,1,7446,Turm,der,gasburner,Windrad,martiniglass01b,reliable,141,1571477947833,critical,Das ist eigentlich ein Bild von einem Windrad.,Turm,28,Windrad,,images/martiniglass01b.jpg,Abitur,,r_e_windrad.wav,Windrad,Deutsch,5b5ef728e3b84d0001521abf,tower-wind-turbine,windturbine.jpg,männlich,images/windturbine.jpg,23,1571477710535,Das ist | eigentlich ein Bild von | einem Windrad.,images/tower.jpg,3.9549666666666665,tower,2220|1134,Turm|Windrad|Windrad,poor_folks_visual_world,Das ist eigentlich ein Bild von einem ...,5
23,Magst du auch den Zug?,Sat Oct 19 2019 11:35:10 GMT+0200 (Central European Summer Time),NA,NA,q_f_lokomotive.wav,NA,1,images/bathtub.jpg,NA,NA,NA,5551,fluorescentlightbulb,NA,bathtub,locomotive,golfbag,filler,251,1571477947833,filler,"Ja, das ist eine schöne Lokomotive. ",NA,28,locomotive,,images/golfbag.jpg,Abitur,,f_lokomotive.wav,locomotive,Deutsch,5b5ef728e3b84d0001521abf,locomotive,NA,männlich,images/locomotive.jpg,24,1571477710535,"Ja, | das ist | eine schöne Lokomotive. ",images/fluorescentlightbulb.jpg,3.9549666666666665,NA,1224|1230,locomotive|locomotive|locomotive,poor_folks_visual_world,"Ja, das ist eine schöne ...",9
23,Ist das eine Gitarre?,Sat Oct 19 2019 11:35:10 GMT+0200 (Central European Summer Time),NA,NA,q_f_gitarre.wav,NA,1,images/smartboard.jpg,NA,NA,NA,6537,alarmsystem,NA,smartboard,toyanimal05,electricguitar01,filler,247,1571477947833,filler,"Ja, das ist eine Gitarre.",NA,28,electricguitar01,,images/electricguitar01.jpg,Abitur,,f_gitarre.wav,electricguitar01,Deutsch,5b5ef728e3b84d0001521abf,guitar,NA,männlich,images/toyanimal05.jpg,25,1571477710535,"Ja, | das ist | eine Gitarre.",images/alarmsystem.jpg,3.9549666666666665,NA,1144|2868,electricguitar01|electricguitar01|electricguitar01,poor_folks_visual_world,"Ja, das ist eine ...",8
23,"Wie heißt das gelbe Ding, was man werfen kann?",Sat Oct 19 2019 11:35:10 GMT+0200 (Central European Summer Time),NA,NA,q_f_frisbee.wav,NA,1,images/trailer.jpg,NA,NA,NA,3951,shipinabottle,NA,trailer,frisbee,ferry,filler,219,1571477947833,filler,Das ist eine Frisbee. ,NA,28,frisbee,,images/ferry.jpg,Abitur,,f_frisbee.wav,frisbee,Deutsch,5b5ef728e3b84d0001521abf,frisbee,NA,männlich,images/frisbee.jpg,26,1571477710535,Das ist | eine Frisbee. ,images/shipinabottle.jpg,3.9549666666666665,NA,939,frisbee|frisbee,poor_folks_visual_world,Das ist eine ...,4
23,Ist das ein Bild von einem Kontrabass?,Sat Oct 19 2019 11:35:10 GMT+0200 (Central European Summer Time),doublebass.jpg,actually,q_r_kontrabass.wav,banjo,1,images/ceilingfan01.jpg,das,Banjo,1,5796,Banjo,der,ceilingfan01,Kontrabass,treadmill,reliable,121,1571477947833,critical,Das ist eigentlich ein Bild von einem Banjo.,Kontrabass,28,Banjo,,images/treadmill.jpg,Abitur,,r_e_banjo.wav,Banjo,Deutsch,5b5ef728e3b84d0001521abf,double-bass-banjo,banjo.jpg,männlich,images/doublebass.jpg,27,1571477710535,Das ist | eigentlich ein Bild von | einem Banjo.,images/banjo.jpg,3.9549666666666665,double-bass,1656|1079,Kontrabass|Banjo|Banjo,poor_folks_visual_world,Das ist eigentlich ein Bild von einem ...,3
23,Wie heißt das Ding mit den drei Rädern?,Sat Oct 19 2019 11:35:10 GMT+0200 (Central European Summer Time),NA,NA,q_f_dreirad.wav,NA,1,images/castletower.jpg,NA,NA,NA,4113,tricycle,NA,castletower,drinkshaker,rockinghorse,filler,218,1571477947833,filler,Das ist ein Dreirad.,NA,28,tricycle,,images/rockinghorse.jpg,Abitur,,f_dreirad.wav,tricycle,Deutsch,5b5ef728e3b84d0001521abf,tricycle,NA,männlich,images/drinkshaker.jpg,28,1571477710535,Das ist | ein Dreirad.,images/tricycle.jpg,3.9549666666666665,NA,1032,tricycle|tricycle,poor_folks_visual_world,Das ist ein ...,3
12,Ist das etwas was man auf Hausdächern sieht?,Sat Oct 19 2019 07:11:50 GMT+0100 (British Summer Time),NA,NA,q_f_wetterfahne.wav,NA,1,images/tree.jpg,NA,NA,NA,37809,coathook,NA,tree,pipe,weathervane,filler,224,1571465692562,filler,"Ja, das nennt sich Wetterfahne. ",NA,57,weathervane,,images/weathervane.jpg,Universitärer Abschluss,,f_wetterfahne.wav,weathervane,Deutsch,58335814d6ed08000154e575,weather-vane,NA,weiblich,images/pipe.jpg,1,1571465510565,"Ja, | das nennt sich | Wetterfahne. ",images/coathook.jpg,3.0332833333333333,NA,12464|5389,weathervane|weathervane|weathervane,poor_folks_visual_world_training,"Ja, das nennt sich ...",4
12,Ist das eine Blume?,Sat Oct 19 2019 07:11:50 GMT+0100 (British Summer Time),NA,NA,q_f_artischoke.wav,NA,1,images/waterfountain02.jpg,NA,NA,NA,30284,atm,NA,waterfountain02,pumpkin,artichoke01b,filler,238,1571465692562,filler,"Nein, das ist eine Artischocke, man kann sie kochen.",NA,57,artichoke01b,,images/artichoke01b.jpg,Universitärer Abschluss,,f_artischoke.wav,artichoke01b,Deutsch,58335814d6ed08000154e575,artichoke,NA,weiblich,images/pumpkin.jpg,2,1571465510565,"Nein, | das ist | eine Artischocke, | man kann sie kochen.",images/atm.jpg,3.0332833333333333,NA,5690|5891|6517,artichoke01b|artichoke01b|artichoke01b|artichoke01b,poor_folks_visual_world_training,"Nein, das ist eine ..., man kann sie kochen.",7
12,Ist das ein Messer?,Sat Oct 19 2019 07:11:50 GMT+0100 (British Summer Time),NA,NA,q_f_taschenmesser.wav,NA,1,images/swissarmyknife01a.jpg,NA,NA,NA,15274,wheat,NA,swissarmyknife01a,rockingchair,litterbox,filler,231,1571465692562,filler,"Ja, das ist ein schweizer Taschenmesser.",NA,57,swissarmyknife01a,,images/litterbox.jpg,Universitärer Abschluss,,f_schweizertaschenmesser.wav,swissarmyknife01a,Deutsch,58335814d6ed08000154e575,swiss-army-knife,NA,weiblich,images/rockingchair.jpg,1,1571465510565,"Ja, | das ist | ein schweizer Taschenmesser.",images/wheat.jpg,3.0332833333333333,NA,4735|3870,swissarmyknife01a|swissarmyknife01a|swissarmyknife01a,poor_folks_visual_world,"Ja, das ist ein schweizer ...",6
17,Magst du auch das blau und gelb gefärbte Ding?,Sat Oct 19 2019 07:25:10 GMT+0100 (British Summer Time),NA,NA,q_f_murmel.wav,NA,1,images/marble.jpg,NA,NA,NA,16459,powerchair,NA,marble,lintroller,waterwalve,filler,235,1571466401455,filler,"Ja, das ist eine schöne Murmel.",NA,25,marble,,images/watervalve.jpg,Universitärer Abschluss,,f_murmel.wav,marble,Deutsch,5cd52e2323d63700187c6a51,marble,NA,divers,images/lintroller.jpg,1,1571466310588,"Ja, | das ist | eine schöne Murmel.",images/powerchair.jpg,1.51445,NA,5642|2685,marble|marble|marble,poor_folks_visual_world_training,"Ja, das ist eine schöne ...",6
17,Wie heißt das Ding mit den drei Rädern?,Sat Oct 19 2019 07:25:10 GMT+0100 (British Summer Time),NA,NA,q_f_dreirad.wav,NA,1,images/castletower.jpg,NA,NA,NA,7307,tricycle,NA,castletower,drinkshaker,rockinghorse,filler,218,1571466401455,filler,Das ist ein Dreirad.,NA,25,tricycle,,images/rockinghorse.jpg,Universitärer Abschluss,,f_dreirad.wav,tricycle,Deutsch,5cd52e2323d63700187c6a51,tricycle,NA,divers,images/drinkshaker.jpg,2,1571466310588,Das ist | ein Dreirad.,images/tricycle.jpg,1.51445,NA,2386,tricycle|tricycle,poor_folks_visual_world_training,Das ist ein ...,3
17,Ist das eine Türglocke?,Sat Oct 19 2019 07:25:10 GMT+0100 (British Summer Time),NA,NA,q_f_klingel.wav,NA,1,images/cakeplatter.jpg,NA,NA,NA,15403,powerline,NA,cakeplatter,callbell,skippingrope,filler,245,1571466401455,filler,"Nein, das ist eine Klingel.",NA,25,callbell,,images/skippingrope.jpg,Universitärer Abschluss,,f_klingel.wav,callbell,Deutsch,5cd52e2323d63700187c6a51,call-bell,NA,divers,images/callbell.jpg,1,1571466310588,"Nein, | das ist | eine Klingel.",images/powerline.jpg,1.51445,NA,3170|7028,cakeplatter|cakeplatter|callbell,poor_folks_visual_world,"Nein, das ist eine ...",8
40,Was ist das für ein Tier mit den langen Hörnern?,Sat Oct 19 2019 11:45:28 GMT+0200 (Mitteleuropäische Sommerzeit),NA,NA,q_f_nyala.wav,NA,1,images/nyala.jpg,NA,NA,NA,28736,dalmatian,NA,nyala,stuffedpuffin,heron01,filler,214,1571478746164,filler,Ich glaube das ist ein Nyala.,NA,30,nyala,,images/heron01.jpg,Universitärer Abschluss,,f_nyala.wav,nyala,Polnisch,5cf3ec46a14d6b0001cfc029,nyala,NA,männlich,images/stuffedpuffin.jpg,1,1571478328886,"Ich glaube, | das ist | ein Nyala.",images/dalmatian.jpg,6.954633333333334,NA,5107|13369,nyala|nyala|nyala,poor_folks_visual_world_training,Ich glaube das ist ein ...,3
40,Benutzt man das hier für Blätter?,Sat Oct 19 2019 11:45:28 GMT+0200 (Mitteleuropäische Sommerzeit),NA,NA,q_f_harke.wav,NA,1,images/busshelter.jpg,NA,NA,NA,17286,megaphone,NA,busshelter,bowrake,dresser02,filler,249,1571478746164,filler,"Ja, das nennt sich Harke. ",NA,30,bowrake,,images/dresser02.jpg,Universitärer Abschluss,,f_harke.wav,bowrake,Polnisch,5cf3ec46a14d6b0001cfc029,rake,NA,männlich,images/bowrake.jpg,2,1571478328886,"Ja, | das nennt sich | Harke. ",images/megaphone.jpg,6.954633333333334,NA,3536|3110,bowrake|bowrake|bowrake,poor_folks_visual_world_training,"Ja, das nennt sich ...",9
40,Ist das ein Messer?,Sat Oct 19 2019 11:45:28 GMT+0200 (Mitteleuropäische Sommerzeit),NA,NA,q_f_taschenmesser.wav,NA,1,images/swissarmyknife01a.jpg,NA,NA,NA,10683,wheat,NA,swissarmyknife01a,rockingchair,litterbox,filler,231,1571478746164,filler,"Ja, das ist ein schweizer Taschenmesser.",NA,30,swissarmyknife01a,,images/litterbox.jpg,Universitärer Abschluss,,f_schweizertaschenmesser.wav,swissarmyknife01a,Polnisch,5cf3ec46a14d6b0001cfc029,swiss-army-knife,NA,männlich,images/rockingchair.jpg,1,1571478328886,"Ja, | das ist | ein schweizer Taschenmesser.",images/wheat.jpg,6.954633333333334,NA,2437|2852,swissarmyknife01a|swissarmyknife01a|swissarmyknife01a,poor_folks_visual_world,"Ja, das ist ein schweizer ...",6
40,Ist das ein Bild von einem Maiskolben?,Sat Oct 19 2019 11:45:28 GMT+0200 (Mitteleuropäische Sommerzeit),corn02.jpg,indeed,q_r_maiskolben.wav,cork,1,images/parachute.jpg,der,Korken,1,11414,Korken,der,parachute,Maiskolben,weedwacker,reliable,37,1571478746164,critical,Das ist tatsächlich ein Bild von einem Maiskolben.,Maiskolben,30,Maiskolben,,images/weedwacker.jpg,Universitärer Abschluss,,r_t_maiskolben.wav,Maiskolben,Polnisch,5cf3ec46a14d6b0001cfc029,corn-cork,cork02.jpg,männlich,images/corn02.jpg,2,1571478328886,Das ist | tatsächlich ein Bild von | einem Maiskolben.,images/cork02.jpg,6.954633333333334,corn,2915|2088,Maiskolben|Maiskolben|Maiskolben,poor_folks_visual_world,Das ist tatsächlich ein Bild von einem ...,4
40,Macht man hiermit den Boden sauber?,Sat Oct 19 2019 11:45:28 GMT+0200 (Mitteleuropäische Sommerzeit),NA,NA,q_f_staubsauger.wav,NA,1,images/flipflop01b.jpg,NA,NA,NA,13201,drumset,NA,flipflop01b,curtain,vacuumcleaner01,filler,240,1571478746164,filler,"Ja, das ist ein Staubsauger.",NA,30,vacuumcleaner01,,images/vacuumcleaner01.jpg,Universitärer Abschluss,,f_staubsauger.wav,vacuumcleaner01,Polnisch,5cf3ec46a14d6b0001cfc029,vacuum-cleaner,NA,männlich,images/curtain.jpg,3,1571478328886,"Ja, | das ist | ein Staubsauger.",images/drumset.jpg,6.954633333333334,NA,3052|2478,vacuumcleaner01|vacuumcleaner01|vacuumcleaner01,poor_folks_visual_world,"Ja, das ist ein ...",7
40,Ist das eine Gitarre?,Sat Oct 19 2019 11:45:28 GMT+0200 (Mitteleuropäische Sommerzeit),NA,NA,q_f_gitarre.wav,NA,1,images/smartboard.jpg,NA,NA,NA,7403,alarmsystem,NA,smartboard,toyanimal05,electricguitar01,filler,247,1571478746164,filler,"Ja, das ist eine Gitarre.",NA,30,electricguitar01,,images/electricguitar01.jpg,Universitärer Abschluss,,f_gitarre.wav,electricguitar01,Polnisch,5cf3ec46a14d6b0001cfc029,guitar,NA,männlich,images/toyanimal05.jpg,4,1571478328886,"Ja, | das ist | eine Gitarre.",images/alarmsystem.jpg,6.954633333333334,NA,2055|2076,electricguitar01|electricguitar01|electricguitar01,poor_folks_visual_world,"Ja, das ist eine ...",8
40,Ist das ein Bild von einem Traktor?,Sat Oct 19 2019 11:45:28 GMT+0200 (Mitteleuropäische Sommerzeit),tractor.jpg,actually,q_r_traktor.wav,tank,1,images/tank.jpg,der,Panzer,4,15705,foosballtable,der,Panzer,Traktor,patioumbrella,reliable,140,1571478746164,critical,Das ist eigentlich ein Bild von einem Panzer.,Traktor,30,Panzer,,images/patioumbrella.jpg,Universitärer Abschluss,,r_e_panzer.wav,Panzer,Polnisch,5cf3ec46a14d6b0001cfc029,tractor-tank,tank.jpg,männlich,images/tractor.jpg,5,1571478328886,Das ist | eigentlich ein Bild von | einem Panzer.,images/foosballtable.jpg,6.954633333333334,tractor,3463|6379,Traktor|Traktor|Panzer,poor_folks_visual_world,Das ist eigentlich ein Bild von einem ...,4
40,Ist das ein Boot?,Sat Oct 19 2019 11:45:28 GMT+0200 (Mitteleuropäische Sommerzeit),NA,NA,q_f_boot.wav,NA,1,images/aquarium.jpg,NA,NA,NA,9030,halogenlightbulb,NA,aquarium,officecabinet,boat,filler,236,1571478746164,filler,"Ja, das ist ein Boot. ",NA,30,boat,,images/boat.jpg,Universitärer Abschluss,,f_boot.wav,boat,Polnisch,5cf3ec46a14d6b0001cfc029,boat,NA,männlich,images/officecabinet.jpg,6,1571478328886,"Ja, | das ist | ein Boot. ",images/halogenlightbulb.jpg,6.954633333333334,NA,2018|2192,boat|boat|boat,poor_folks_visual_world,"Ja, das ist ein ...",6
40,Ist das ein Bild von einer Jeans?,Sat Oct 19 2019 11:45:28 GMT+0200 (Mitteleuropäische Sommerzeit),jeans01.jpg,indeed,q_r_jeans.wav,shorts,1,images/bikepump01.jpg,die,Badehose,2,14564,Jeans,die,bikepump01,jellybean,Badehose,reliable,38,1571478746164,critical,Das ist tatsächlich ein Bild von einer Jeans.,Jeans,30,Jeans,,images/swimsuit.jpg,Universitärer Abschluss,,r_t_jeans.wav,Jeans,Polnisch,5cf3ec46a14d6b0001cfc029,pants-shorts,swimsuit.jpg,männlich,images/jellybean.jpg,7,1571478328886,Das ist | tatsächlich ein Bild von | einer Jeans.,images/jeans01.jpg,6.954633333333334,pants,2411|2092,Badehose|Jeans|Jeans,poor_folks_visual_world,Das ist tatsächlich ein Bild von einer ...,4
40,Magst du auch das rote Tier?,Sat Oct 19 2019 11:45:28 GMT+0200 (Mitteleuropäische Sommerzeit),NA,NA,q_f_fisch.wav,NA,1,images/badger.jpg,NA,NA,NA,14185,redlionfish,NA,badger,kangaroo,owl,filler,201,1571478746164,filler,"Ja, das ist ein sehr schöner Fisch.",NA,30,redlionfish,,images/owl.jpg,Universitärer Abschluss,,f_fisch.wav,redlionfish,Polnisch,5cf3ec46a14d6b0001cfc029,redlion-fish,NA,männlich,images/kangaroo.jpg,8,1571478328886,"Ja, | das ist | ein sehr schöner Fisch.",images/redlionfish.jpg,6.954633333333334,NA,2852|2244,redlionfish|redlionfish|redlionfish,poor_folks_visual_world,"Ja, das ist ein sehr schöner ...",1
40,Magst du auch das große Rad?,Sat Oct 19 2019 11:45:28 GMT+0200 (Mitteleuropäische Sommerzeit),NA,NA,q_f_wagenrad.wav,NA,1,images/menwashroomsign.jpg,NA,NA,NA,8183,wagonwheel,NA,menwashroomsign,aloe01,kidpicnictable,filler,232,1571478746164,filler,"Ja, das ist ein großes Wagenrad. ",NA,30,wagonwheel,,images/kidpicnictable.jpg,Universitärer Abschluss,,f_wagenrad.wav,wagonwheel,Polnisch,5cf3ec46a14d6b0001cfc029,wagon-wheel,NA,männlich,images/aloe01.jpg,9,1571478328886,"Ja, | das ist | ein großes Wagenrad. ",images/wagonwheel.jpg,6.954633333333334,NA,1977|1916,wagonwheel|wagonwheel|wagonwheel,poor_folks_visual_world,"Ja, das ist ein großes ...",6
40,Ist das ein Bild von einem Bus?,Sat Oct 19 2019 11:45:28 GMT+0200 (Mitteleuropäische Sommerzeit),bus.jpg,indeed,q_r_bus.wav,truck,1,images/poolnet.jpg,der,Lastwagen,1,9115,Bus,der,poolnet,Lastwagen,birdnest,reliable,25,1571478746164,critical,Das ist tatsächlich ein Bild von einem Bus.,Bus,30,Bus,,images/birdnest.jpg,Universitärer Abschluss,,r_t_bus.wav,Bus,Polnisch,5cf3ec46a14d6b0001cfc029,bus-truck,boxtruck.jpg,männlich,images/boxtruck.jpg,10,1571478328886,Das ist | tatsächlich ein Bild von | einem Bus.,images/bus.jpg,6.954633333333334,bus,2280|2164,Bus|Bus|Bus,poor_folks_visual_world,Das ist tatsächlich ein Bild von einem ...,3
40,Ist das ein Bild von einem Messer?,Sat Oct 19 2019 11:45:28 GMT+0200 (Mitteleuropäische Sommerzeit),knife03.jpg,indeed,q_r_messer.wav,sword,1,images/sword01.jpg,das,Schwert,3,10605,bikewheel,das,Schwert,candelabra,Messer,reliable,35,1571478746164,critical,Das ist tatsächlich ein Bild von einem Messer.,Messer,30,Messer,,images/knife03.jpg,Universitärer Abschluss,,r_t_messer.wav,Messer,Polnisch,5cf3ec46a14d6b0001cfc029,knife-sword,sword01.jpg,männlich,images/candelabra.jpg,11,1571478328886,Das ist | tatsächlich ein Bild von | einem Messer.,images/bikewheel.jpg,6.954633333333334,knife,2474|2092,Messer|Messer|Messer,poor_folks_visual_world,Das ist tatsächlich ein Bild von einem ...,4
40,Was ist das für ein Tier mit dem seltsamen Kopf?,Sat Oct 19 2019 11:45:28 GMT+0200 (Mitteleuropäische Sommerzeit),NA,NA,q_f_tintenfisch.wav,NA,1,images/cuttlefish.jpg,NA,NA,NA,10223,mouse,NA,cuttlefish,kingfisher,grizzly,filler,202,1571478746164,filler,Das ist ein Tintenfisch.,NA,30,cuttlefish,,images/grizzly.jpg,Universitärer Abschluss,,f_tintenfisch.wav,cuttlefish,Polnisch,5cf3ec46a14d6b0001cfc029,cuttlefish,NA,männlich,images/kingfisher.jpg,12,1571478328886,Das ist | ein Tintenfisch.,images/mouse.jpg,6.954633333333334,NA,2423,cuttlefish|cuttlefish,poor_folks_visual_world,Das ist ein ...,1
40,"Magst du auch das Ding, was wie ein Pferd aussieht?",Sat Oct 19 2019 11:45:28 GMT+0200 (Mitteleuropäische Sommerzeit),NA,NA,q_f_springerschach.wav,NA,1,images/bassguitar.jpg,NA,NA,NA,10765,aluminiumfoil,NA,bassguitar,chessknight03a,visor,filler,243,1571478746164,filler,"Ja, das ist ein Springer im Schach.",NA,30,chessknight03a,,images/visor.jpg,Universitärer Abschluss,,f_springerschach.wav,chessknight03a,Polnisch,5cf3ec46a14d6b0001cfc029,chess-knight,NA,männlich,images/chessknight03a.jpg,13,1571478328886,"Ja, | das ist | ein Springer im Schach.",images/aluminiumfoil.jpg,6.954633333333334,NA,2464|1907,chessknight03a|chessknight03a|chessknight03a,poor_folks_visual_world,"Ja, das ist ein ...",8
40,Ist das ein Bild von einem Hut?,Sat Oct 19 2019 11:45:28 GMT+0200 (Mitteleuropäische Sommerzeit),witchhat.jpg,actually,q_r_hut.wav,hard-hat,1,images/witchhat.jpg,der,Schutzhelm,4,8986,arrow02,der,Hut,Schutzhelm,radiator,reliable,136,1571478746164,critical,Das ist eigentlich ein Bild von einem Schutzhelm.,Hut,30,Schutzhelm,,images/radiator.jpg,Universitärer Abschluss,,r_e_schutzhelm.wav,Schutzhelm,Polnisch,5cf3ec46a14d6b0001cfc029,hat-hard-hat,hardhat02.jpg,männlich,images/hardhat02.jpg,14,1571478328886,Das ist | eigentlich ein Bild von | einem Schutzhelm.,images/arrow02.jpg,6.954633333333334,hat,2252|2614,Hut|Schutzhelm|Schutzhelm,poor_folks_visual_world,Das ist eigentlich ein Bild von einem ...,4
40,Magst du auch das bunte Ding?,Sat Oct 19 2019 11:45:28 GMT+0200 (Mitteleuropäische Sommerzeit),NA,NA,q_f_geschenk.wav,NA,1,images/chest01.jpg,NA,NA,NA,9000,gift01,NA,chest01,patiochair,ironingboard01,filler,258,1571478746164,filler,"Ja, das ist ein schönes Geschenk.",NA,30,gift01,,images/ironingboard01.jpg,Universitärer Abschluss,,f_geschenk.wav,gift01,Polnisch,5cf3ec46a14d6b0001cfc029,gift,NA,männlich,images/patiochair.jpg,15,1571478328886,"Ja, | das ist | ein schönes Geschenk.",images/gift01.jpg,6.954633333333334,NA,2160|2425,gift01|gift01|gift01,poor_folks_visual_world,"Ja, das ist ein schönes ...",10
40,Ist das große weiße Ding für die Toilette?,Sat Oct 19 2019 11:45:28 GMT+0200 (Mitteleuropäische Sommerzeit),NA,NA,q_f_klobuerste.wav,NA,1,images/toiletbrush.jpg,NA,NA,NA,9494,grill,NA,toiletbrush,strap,outdoorfireplace,filler,221,1571478746164,filler,"Ja, das ist eine Klobürste.",NA,30,toiletbrush,,images/outdoorfireplace.jpg,Universitärer Abschluss,,f_klobuerste.wav,toiletbrush,Polnisch,5cf3ec46a14d6b0001cfc029,toilet-brush,NA,männlich,images/strap.jpg,16,1571478328886,"Ja, | das ist | eine Klobürste.",images/grill.jpg,6.954633333333334,NA,2018|1994,toiletbrush|toiletbrush|toiletbrush,poor_folks_visual_world,"Ja, das ist eine ...",4
40,Wie heißt das bunte Ding?,Sat Oct 19 2019 11:45:28 GMT+0200 (Mitteleuropäische Sommerzeit),NA,NA,q_f_zauberwuerfel.wav,NA,1,images/securitycamera.jpg,NA,NA,NA,7341,apron,NA,securitycamera,rubikcube,dishrack,filler,233,1571478746164,filler,Das ist ein Zauberwürfel.,NA,30,rubikcube,,images/dishrack.jpg,Universitärer Abschluss,,f_zauberwuerfel.wav,rubikcube,Polnisch,5cf3ec46a14d6b0001cfc029,Rubiks-cube,NA,männlich,images/rubikcube.jpg,17,1571478328886,Das ist | ein Zauberwürfel.,images/apron.jpg,6.954633333333334,NA,2415,rubikcube|rubikcube,poor_folks_visual_world,Das ist ein ...,6
40,Ist das ein Bild von einem Affen?,Sat Oct 19 2019 11:45:28 GMT+0200 (Mitteleuropäische Sommerzeit),macaque.jpg,indeed,q_r_affe.wav,gorilla,1,images/gorilla.jpg,der,Gorilla,2,12623,riverotter,der,Gorilla,Affen,hammerheadshark,reliable,14,1571478746164,critical,Das ist tatsächlich ein Bild von einem Affen.,Affen,30,Gorilla,,images/hammerheadshark.jpg,Universitärer Abschluss,,r_t_affe.wav,Affen,Polnisch,5cf3ec46a14d6b0001cfc029,monkey-gorilla,gorilla.jpg,männlich,images/macaque.jpg,18,1571478328886,Das ist | tatsächlich ein Bild von | einem Affen.,images/riverotter.jpg,6.954633333333334,monkey,2386|2579,Gorilla|Gorilla|Gorilla,poor_folks_visual_world,Das ist tatsächlich ein Bild von einem ...,2
40,"Findest du nicht, dass dieses hier stachelig ist?",Sat Oct 19 2019 11:45:28 GMT+0200 (Mitteleuropäische Sommerzeit),NA,NA,q_f_kakteen.wav,NA,1,images/locker.jpg,NA,NA,NA,13361,soccercleat01,NA,locker,cactus,safetyglasses,filler,220,1571478746164,filler,"Ja, Kakteen sind meistens sehr stachelig.",NA,30,cactus,,images/safetyglasses.jpg,Universitärer Abschluss,,f_kakteen.wav,cactus,Polnisch,5cf3ec46a14d6b0001cfc029,cactus,NA,männlich,images/cactus.jpg,19,1571478328886,"Ja, | Kakteen sind meistens | sehr stachelig.",images/soccercleat01.jpg,6.954633333333334,NA,3444|2430,cactus|cactus|cactus,poor_folks_visual_world,"Ja, ... sind meistens sehr stachelig.",4
40,Ist das ein Bild von einem Briefkasten?,Sat Oct 19 2019 11:45:28 GMT+0200 (Mitteleuropäische Sommerzeit),postalmailbox01.jpg,actually,q_r_briefkasten.wav,gargabe-can,1,images/tambourine03.jpg,der,Mülleimer,1,8016,Briefkasten,der,tambourine03,Mülleimer,dolly01,reliable,133,1571478746164,critical,Das ist eigentlich ein Bild von einem Mülleimer.,Briefkasten,30,Mülleimer,,images/dolly01.jpg,Universitärer Abschluss,,r_e_muelleimer.wav,Mülleimer,Polnisch,5cf3ec46a14d6b0001cfc029,mailbox-gargabe-can,garbagebin.jpg,männlich,images/garbagebin.jpg,20,1571478328886,Das ist | eigentlich ein Bild von | einem Mülleimer.,images/postalmailbox01.jpg,6.954633333333334,mailbox,2393|2258,Briefkasten|Mülleimer|Mülleimer,poor_folks_visual_world,Das ist eigentlich ein Bild von einem ...,4
40,Magst du auch das gelbe Ding?,Sat Oct 19 2019 11:45:28 GMT+0200 (Mitteleuropäische Sommerzeit),NA,NA,q_f_narzisse.wav,NA,1,images/fighterjet.jpg,NA,NA,NA,7142,daffodil,NA,fighterjet,stubbywrench01a,lilypad,filler,234,1571478746164,filler,"Ja, das ist eine schöne Narzisse.",NA,30,daffodil,,images/lilypad.jpg,Universitärer Abschluss,,f_narzisse.wav,daffodil,Polnisch,5cf3ec46a14d6b0001cfc029,daffodil,NA,männlich,images/stubbywrench01a.jpg,21,1571478328886,"Ja, | das ist | eine schöne Narzisse.",images/daffodil.jpg,6.954633333333334,NA,1817|1961,daffodil|daffodil|daffodil,poor_folks_visual_world,"Ja, das ist eine schöne ...",6
40,Ist das etwas was man auf Hausdächern sieht?,Sat Oct 19 2019 11:45:28 GMT+0200 (Mitteleuropäische Sommerzeit),NA,NA,q_f_wetterfahne.wav,NA,1,images/tree.jpg,NA,NA,NA,12845,coathook,NA,tree,pipe,weathervane,filler,224,1571478746164,filler,"Ja, das nennt sich Wetterfahne. ",NA,30,weathervane,,images/weathervane.jpg,Universitärer Abschluss,,f_wetterfahne.wav,weathervane,Polnisch,5cf3ec46a14d6b0001cfc029,weather-vane,NA,männlich,images/pipe.jpg,22,1571478328886,"Ja, | das nennt sich | Wetterfahne. ",images/coathook.jpg,6.954633333333334,NA,2733|2699,weathervane|weathervane|weathervane,poor_folks_visual_world,"Ja, das nennt sich ...",4
40,Ist das ein Bild von einem Basketball?,Sat Oct 19 2019 11:45:28 GMT+0200 (Mitteleuropäische Sommerzeit),basketball01.jpg,actually,q_r_basketball.wav,volleyball,1,images/skipole.jpg,der,Volleyball,2,8961,Volleyball,der,skipole,bowlingpin,Basketball,reliable,126,1571478746164,critical,Das ist eigentlich ein Bild von einem Volleyball.,Basketball,30,Volleyball,,images/basketball01.jpg,Universitärer Abschluss,,r_e_volleyball.wav,Volleyball,Polnisch,5cf3ec46a14d6b0001cfc029,basketball-volleyball,volleyball.jpg,männlich,images/bowlingpin.jpg,23,1571478328886,Das ist | eigentlich ein Bild von | einem Volleyball.,images/volleyball.jpg,6.954633333333334,basketball,1961|2112,Basketball|Volleyball|Volleyball,poor_folks_visual_world,Das ist eigentlich ein Bild von einem ...,3
40,Benutzt man das hier um Waffeln zu machen?,Sat Oct 19 2019 11:45:28 GMT+0200 (Mitteleuropäische Sommerzeit),NA,NA,q_f_waffeleisen.wav,NA,1,images/wafflemaker.jpg,NA,NA,NA,9113,chandelier,NA,wafflemaker,scooter,flower01,filler,248,1571478746164,filler,"Ja, das ist ein Waffeleisen.",NA,30,wafflemaker,,images/flower01.jpg,Universitärer Abschluss,,f_waffeleisen.wav,wafflemaker,Polnisch,5cf3ec46a14d6b0001cfc029,waffle-maker,NA,männlich,images/scooter.jpg,24,1571478328886,"Ja, | das ist | ein Waffeleisen.",images/chandelier.jpg,6.954633333333334,NA,1987|2050,wafflemaker|wafflemaker|wafflemaker,poor_folks_visual_world,"Ja, das ist ein ...",8
40,Ist das ein Pinguin?,Sat Oct 19 2019 11:45:28 GMT+0200 (Mitteleuropäische Sommerzeit),NA,NA,q_f_pinguin.wav,NA,1,images/whitetiger.jpg,NA,NA,NA,7501,penguin,NA,whitetiger,cow,grasshopper,filler,207,1571478746164,filler,"Ja, das ist ein Pinguin.",NA,30,penguin,,images/grasshopper.jpg,Universitärer Abschluss,,f_pinguin.wav,penguin,Polnisch,5cf3ec46a14d6b0001cfc029,penguin,NA,männlich,images/cow.jpg,25,1571478328886,"Ja, | das ist | ein Pinguin.",images/penguin.jpg,6.954633333333334,NA,1932|1922,penguin|penguin|penguin,poor_folks_visual_world,"Ja, das ist ein ...",2
40,Was ist das mit dem Schabel für ein Tier?,Sat Oct 19 2019 11:45:28 GMT+0200 (Mitteleuropäische Sommerzeit),NA,NA,q_f_schnabeltier.wav,NA,1,images/platypus.jpg,NA,NA,NA,10760,crocodile,NA,platypus,greathornowl,cougar,filler,205,1571478746164,filler,Das ist ein Schnabeltier.,NA,30,platypus,,images/cougar.jpg,Universitärer Abschluss,,f_schnabeltier.wav,platypus,Polnisch,5cf3ec46a14d6b0001cfc029,platypus,NA,männlich,images/greathornowl.jpg,26,1571478328886,Das ist | ein Schnabeltier.,images/crocodile.jpg,6.954633333333334,NA,2130,platypus|platypus,poor_folks_visual_world,Das ist ein ...,1
40,Ist das ein Bild von einem Papagei?,Sat Oct 19 2019 11:45:28 GMT+0200 (Mitteleuropäische Sommerzeit),parrot01.jpg,actually,q_r_papagei.wav,toucan,1,images/greatwhiteshark.jpg,der,Tukan,3,7933,Papagei,der,greatwhiteshark,Tukan,chipmunk,reliable,115,1571478746164,critical,Das ist eigentlich ein Bild von einem Tukan.,Papagei,30,Tukan,,images/chipmunk.jpg,Universitärer Abschluss,,r_e_tucan.wav,Tukan,Polnisch,5cf3ec46a14d6b0001cfc029,parrot-toucan,toucan.jpg,männlich,images/toucan.jpg,27,1571478328886,Das ist | eigentlich ein Bild von | einem Tukan.,images/parrot01.jpg,6.954633333333334,parrot,1816|1813,Papagei|Tukan|Tukan,poor_folks_visual_world,Das ist eigentlich ein Bild von einem ...,2
40,Magst du auch das Ding mit der Blume?,Sat Oct 19 2019 11:45:28 GMT+0200 (Mitteleuropäische Sommerzeit),NA,NA,q_f_gemaelde.wav,NA,1,images/cashregister01.jpg,NA,NA,NA,9955,painting,NA,cashregister01,exitsign,entrancegate,filler,241,1571478746164,filler,"Ja, das ist ein schönes Gemälde. ",NA,30,painting,,images/entrancegate.jpg,Universitärer Abschluss,,f_gemaelde.wav,painting,Polnisch,5cf3ec46a14d6b0001cfc029,painting,NA,männlich,images/exitsign.jpg,28,1571478328886,"Ja, | das ist | ein schönes Gemälde. ",images/painting.jpg,6.954633333333334,NA,2347|2003,painting|painting|painting,poor_folks_visual_world,"Ja, das ist ein schönes ...",7
13,Ist das ein Fisch?,Sat Oct 19 2019 07:14:35 GMT+0100 (British Summer Time),NA,NA,q_f_wal.wav,NA,1,images/caribou02.jpg,NA,NA,NA,17741,scorpion,NA,caribou,asianelephant,whaleshark,filler,209,1571465830340,filler,"Nein, das ist ein Waal.",NA,31,whaleshark,,images/whaleshark.jpg,Universitärer Abschluss,,f_wal.wav,whaleshark,Deutsch,5c9b3126a586fd00154d5440,whale,NA,weiblich,images/asianelephant.jpg,1,1571465675029,"Nein, | das ist | ein Waal.",images/scorpion.jpg,2.5885166666666666,NA,5355|4197,whaleshark|whaleshark|whaleshark,poor_folks_visual_world_training,"Nein, das ist ein ...",2
13,"Findest du nicht, dass dieses Tier schöne Punkte hat?",Sat Oct 19 2019 07:14:35 GMT+0100 (British Summer Time),NA,NA,q_f_gepard.wav,NA,1,images/cormorant.jpg,NA,NA,NA,14703,swan,NA,cormorant,africanelephant,cheetah,filler,212,1571465830340,filler,"Ja, der Gepard hat schöne Flecken.",NA,31,cheetah,,images/cheetah.jpg,Universitärer Abschluss,,f_gepard.wav,cheetah,Deutsch,5c9b3126a586fd00154d5440,cheetah,NA,weiblich,images/africanelephant.jpg,2,1571465675029,"Ja, | der Gepard hat | schöne Flecken.",images/swan.jpg,2.5885166666666666,NA,2453|3285,cheetah|cheetah|cheetah,poor_folks_visual_world_training,"Ja, der ... hat schöne Flecken.",2
13,Wie heißt das Ding mit den drei Rädern?,Sat Oct 19 2019 07:14:35 GMT+0100 (British Summer Time),NA,NA,q_f_dreirad.wav,NA,1,images/castletower.jpg,NA,NA,NA,8473,tricycle,NA,castletower,drinkshaker,rockinghorse,filler,218,1571465830340,filler,Das ist ein Dreirad.,NA,31,tricycle,,images/rockinghorse.jpg,Universitärer Abschluss,,f_dreirad.wav,tricycle,Deutsch,5c9b3126a586fd00154d5440,tricycle,NA,weiblich,images/drinkshaker.jpg,1,1571465675029,Das ist | ein Dreirad.,images/tricycle.jpg,2.5885166666666666,NA,2071,tricycle|tricycle,poor_folks_visual_world,Das ist ein ...,3
20,Magst du auch das Ding mit der Blume?,Sat Oct 19 2019 08:29:33 GMT+0200 (Mitteleuropäische Sommerzeit),NA,NA,q_f_gemaelde.wav,NA,1,images/cashregister01.jpg,NA,NA,NA,17959,painting,NA,cashregister01,exitsign,entrancegate,filler,241,1571466675919,filler,"Ja, das ist ein schönes Gemälde. ",NA,35,painting,,images/entrancegate.jpg,Hochschulabschluss,,f_gemaelde.wav,painting,deutsch,5b72f6c46faa18000193e749,painting,NA,weiblich,images/exitsign.jpg,1,1571466573069,"Ja, | das ist | ein schönes Gemälde. ",images/painting.jpg,1.7141666666666666,NA,3317|2962,painting|painting|painting,poor_folks_visual_world_training,"Ja, das ist ein schönes ...",7
20,Ist das ein Boot?,Sat Oct 19 2019 08:29:33 GMT+0200 (Mitteleuropäische Sommerzeit),NA,NA,q_f_boot.wav,NA,1,images/aquarium.jpg,NA,NA,NA,16005,halogenlightbulb,NA,aquarium,officecabinet,boat,filler,236,1571466675919,filler,"Ja, das ist ein Boot. ",NA,35,boat,,images/boat.jpg,Hochschulabschluss,,f_boot.wav,boat,deutsch,5b72f6c46faa18000193e749,boat,NA,weiblich,images/officecabinet.jpg,2,1571466573069,"Ja, | das ist | ein Boot. ",images/halogenlightbulb.jpg,1.7141666666666666,NA,3281|3322,boat|boat|boat,poor_folks_visual_world_training,"Ja, das ist ein ...",6
20,Magst du auch das rote Tier?,Sat Oct 19 2019 08:29:33 GMT+0200 (Mitteleuropäische Sommerzeit),NA,NA,q_f_fisch.wav,NA,1,images/badger.jpg,NA,NA,NA,16137,redlionfish,NA,badger,kangaroo,owl,filler,201,1571466675919,filler,"Ja, das ist ein sehr schöner Fisch.",NA,35,redlionfish,,images/owl.jpg,Hochschulabschluss,,f_fisch.wav,redlionfish,deutsch,5b72f6c46faa18000193e749,redlion-fish,NA,weiblich,images/kangaroo.jpg,1,1571466573069,"Ja, | das ist | ein sehr schöner Fisch.",images/redlionfish.jpg,1.7141666666666666,NA,2917|2916,redlionfish|redlionfish|redlionfish,poor_folks_visual_world,"Ja, das ist ein sehr schöner ...",1
42,Was ist das für ein Tier mit den langen Hörnern?,Sat Oct 19 2019 10:47:03 GMT+0100 (British Summer Time),NA,NA,q_f_nyala.wav,NA,1,images/nyala.jpg,NA,NA,NA,35908,dalmatian,NA,nyala,stuffedpuffin,heron01,filler,214,1571479300632,filler,Ich glaube das ist ein Nyala.,NA,67,nyala,Keine,images/heron01.jpg,Abitur,,f_nyala.wav,nyala,Deutsch,59972ad1bbe84800017964e5,nyala,NA,weiblich,images/stuffedpuffin.jpg,1,1571478423849,"Ich glaube, | das ist | ein Nyala.",images/dalmatian.jpg,14.61305,NA,9816|10103,nyala|nyala|nyala,poor_folks_visual_world_training,Ich glaube das ist ein ...,3
42,Ist das etwas was man zum Kämpfen benutzt?,Sat Oct 19 2019 10:47:03 GMT+0100 (British Summer Time),NA,NA,q_f_boxhandschuh.wav,NA,1,images/stovetop.jpg,NA,NA,NA,36523,boxingglove01,NA,stovetop,hedgeshears,pedestriancrossingsign,filler,225,1571479300632,filler,"Ja, das ist ein Boxhandschuh.",NA,67,boxingglove01,Keine,images/pedestriancrossingsign.jpg,Abitur,,f_boxhandschuh.wav,boxingglove01,Deutsch,59972ad1bbe84800017964e5,boxing-glove,NA,weiblich,images/hedgeshears.jpg,2,1571478423849,"Ja, | das ist | ein Boxhandschuh.",images/boxingglove01.jpg,14.61305,NA,8000|6951,boxingglove01|boxingglove01|boxingglove01,poor_folks_visual_world_training,"Ja, das ist ein ?",5
42,Wie heißt das bunte Tier?,Sat Oct 19 2019 10:47:03 GMT+0100 (British Summer Time),NA,NA,q_f_pfau.wav,NA,1,images/pugdog.jpg,NA,NA,NA,18335,swallow,NA,pugdog,peacock,seaturtle,filler,211,1571479300632,filler,Das ist ein Pfau.,NA,67,peacock,Keine,images/seaturtle.jpg,Abitur,,f_pfau.wav,peacock,Deutsch,59972ad1bbe84800017964e5,peacock,NA,weiblich,images/peacock.jpg,1,1571478423849,Das ist | ein Pfau.,images/swallow.jpg,14.61305,NA,8390,peacock|peacock,poor_folks_visual_world,Das ist ein ...,2
42,Ist das ein Bild von einem Flamingo?,Sat Oct 19 2019 10:47:03 GMT+0100 (British Summer Time),flamingo.jpg,indeed,q_r_flamingo.wav,turkey,1,images/puma.jpg,der,Truthahn,3,29164,Truthahn,der,puma,Flamingo,narwhal,reliable,11,1571479300632,critical,Das ist tatsächlich ein Bild von einem Flamingo.,Flamingo,67,Flamingo,Keine,images/narwhal.jpg,Abitur,,r_t_flamingo.wav,Flamingo,Deutsch,59972ad1bbe84800017964e5,flamingo-turkey,turkey.jpg,weiblich,images/flamingo.jpg,2,1571478423849,Das ist | tatsächlich ein Bild von | einem Flamingo.,images/turkey.jpg,14.61305,flamingo,8296|6831,Flamingo|Flamingo|Flamingo,poor_folks_visual_world,Das ist tatsächlich ein Bild von einem ...,2
42,Magst du auch das Ding mit der Blume?,Sat Oct 19 2019 10:47:03 GMT+0100 (British Summer Time),NA,NA,q_f_gemaelde.wav,NA,1,images/cashregister01.jpg,NA,NA,NA,29902,painting,NA,cashregister01,exitsign,entrancegate,filler,241,1571479300632,filler,"Ja, das ist ein schönes Gemälde. ",NA,67,painting,Keine,images/entrancegate.jpg,Abitur,,f_gemaelde.wav,painting,Deutsch,59972ad1bbe84800017964e5,painting,NA,weiblich,images/exitsign.jpg,3,1571478423849,"Ja, | das ist | ein schönes Gemälde. ",images/painting.jpg,14.61305,NA,12648|7760,painting|painting|painting,poor_folks_visual_world,"Ja, das ist ein schönes ...",7
42,Transportiert das hier Wasser?,Sat Oct 19 2019 10:47:03 GMT+0100 (British Summer Time),NA,NA,q_f_zement.wav,NA,1,images/angelstatue.jpg,NA,NA,NA,27027,woodencrate01,NA,angelstatue,airconditioner,cementtruck,filler,227,1571479300632,filler,"Nein, das transportiert Zement.",NA,67,cementtruck,Keine,images/cementtruck.jpg,Abitur,,f_zement.wav,cementtruck,Deutsch,59972ad1bbe84800017964e5,cement-truck,NA,weiblich,images/airconditioner.jpg,4,1571478423849,"Nein, | das transportiert | Zement.",images/woodencrate01.jpg,14.61305,NA,10608|6135,cementtruck|cementtruck|cementtruck,poor_folks_visual_world,"Nein, das transportiert ...",5
42,Ist das ein Bild von einem Flugzeug?,Sat Oct 19 2019 10:47:03 GMT+0100 (British Summer Time),cessna.jpg,actually,q_r_flugzeug.wav,helicopter,1,images/helicopter.jpg,der,Hubschrauber,4,29431,jarofapplesauce,das,Hubschrauber,Flugzeug,spicerack,reliable,132,1571479300632,critical,Das ist eigentlich ein Bild von einem Hubschrauber.,Flugzeug,67,Hubschrauber,Keine,images/spicerack.jpg,Abitur,,r_e_hubschrauber.wav,Hubschrauber,Deutsch,59972ad1bbe84800017964e5,airplane-helicopter,helicopter.jpg,weiblich,images/cessna.jpg,5,1571478423849,Das ist | eigentlich ein Bild von | einem Hubschrauber.,images/jarofapplesauce.jpg,14.61305,airplane,9863|6504,Flugzeug|Hubschrauber|Hubschrauber,poor_folks_visual_world,Das ist eigentlich ein Bild von einem ...,4
42,Magst du auch das blau und gelb gefärbte Ding?,Sat Oct 19 2019 10:47:03 GMT+0100 (British Summer Time),NA,NA,q_f_murmel.wav,NA,1,images/marble.jpg,NA,NA,NA,25467,powerchair,NA,marble,lintroller,waterwalve,filler,235,1571479300632,filler,"Ja, das ist eine schöne Murmel.",NA,67,marble,Keine,images/watervalve.jpg,Abitur,,f_murmel.wav,marble,Deutsch,59972ad1bbe84800017964e5,marble,NA,weiblich,images/lintroller.jpg,6,1571478423849,"Ja, | das ist | eine schöne Murmel.",images/powerchair.jpg,14.61305,NA,10064|5943,marble|marble|marble,poor_folks_visual_world,"Ja, das ist eine schöne ...",6
42,Ist das ein Bild von einem Panda?,Sat Oct 19 2019 10:47:03 GMT+0100 (British Summer Time),panda.jpg,actually,q_r_panda.wav,polar-bear,1,images/polarbear.jpg,der,Eisbär,2,26444,alligator,der,Eisbär,Panda,warthog,reliable,106,1571479300632,critical,Das ist eigentlich ein Bild von einem Eisbär.,Panda,67,Eisbär,Keine,images/warthog.jpg,Abitur,,r_e_eisbaer.wav,Eisbär,Deutsch,59972ad1bbe84800017964e5,panda-polar-bear,polarbear.jpg,weiblich,images/panda.jpg,7,1571478423849,Das ist | eigentlich ein Bild von | einem Eisbär.,images/alligator.jpg,14.61305,panda,14783|5528,Panda|Eisbär|Eisbär,poor_folks_visual_world,Das ist eigentlich ein Bild von einem ...,1
42,Magst du auch das bunte Ding?,Sat Oct 19 2019 10:47:03 GMT+0100 (British Summer Time),NA,NA,q_f_serviette.wav,NA,1,images/cymbal.jpg,NA,NA,NA,26692,spotlight,NA,cymbal,outdoorchair,napkin,filler,246,1571479300632,filler,"Ja, das ist eine sehr schöne Serviette. ",NA,67,napkin,Keine,images/napkin.jpg,Abitur,,f_servierte.wav,napkin,Deutsch,59972ad1bbe84800017964e5,napkin,NA,weiblich,images/outdoorchair.jpg,8,1571478423849,"Ja, | das ist | eine sehr schöne Serviette. ",images/spotlight.jpg,14.61305,NA,6976|10759,napkin|napkin|napkin,poor_folks_visual_world,"Ja, das ist eine sehr schöne ...",8
42,Benutzt man das um Müll zu recyclen?,Sat Oct 19 2019 10:47:03 GMT+0100 (British Summer Time),NA,NA,q_f_kiste.wav,NA,1,images/recyclingbin.jpg,NA,NA,NA,21855,kiwi03,NA,recyclingbin,lily,skateboard,filler,237,1571479300632,filler,"Ja, das ist eine Kiste zum Wiederverwerten.",NA,67,recyclingbin,Keine,images/skateboard.jpg,Abitur,,f_kistewiederverwerten.wav,recyclingbin,Deutsch,59972ad1bbe84800017964e5,recycling-bin,NA,weiblich,images/lily.jpg,9,1571478423849,"Ja, | das ist | eine Kiste zum Wiederverwerten.",images/kiwi03.jpg,14.61305,NA,7808|7095,recyclingbin|recyclingbin|recyclingbin,poor_folks_visual_world,"Ja, das ist eine ... zum Wiederverwerten.",7
42,Ist das ein Bild von einem Bett?,Sat Oct 19 2019 10:47:03 GMT+0100 (British Summer Time),bed.jpg,indeed,q_r_bett.wav,couch,1,images/chair.jpg,das,Sofa,2,19068,Bett,das,chair,toyfiretruck,Sofa,reliable,30,1571479300632,critical,Das ist tatsächlich ein Bild von einem Bett.,Bett,67,Bett,Keine,images/couch02.jpg,Abitur,,r_t_bett.wav,Bett,Deutsch,59972ad1bbe84800017964e5,bed-couch,couch02.jpg,weiblich,images/toyfiretruck.jpg,10,1571478423849,Das ist | tatsächlich ein Bild von | einem Bett.,images/bed.jpg,14.61305,bed,7176|5424,Bett|Bett|Bett,poor_folks_visual_world,Das ist tatsächlich ein Bild von einem ...,3
42,Ist das ein Bild von einem Huhn?,Sat Oct 19 2019 10:47:03 GMT+0100 (British Summer Time),hen.jpg,indeed,q_r_huhn.wav,rooster,1,images/hen.jpg,der,Hahn,1,25838,killerwhale,das,Huhn,rockbass,Hahn,reliable,5,1571479300632,critical,Das ist tatsächlich ein Bild von einem Huhn.,Huhn,67,Huhn,Keine,images/rooster.jpg,Abitur,,r_t_huhn.wav,Huhn,Deutsch,59972ad1bbe84800017964e5,chicken-rooster,rooster.jpg,weiblich,images/rockbass.jpg,11,1571478423849,Das ist | tatsächlich ein Bild von | einem Huhn.,images/killerwhale.jpg,14.61305,chicken,8528|6176,Huhn|Huhn|Huhn,poor_folks_visual_world,Das ist tatsächlich ein Bild von einem ...,1
42,Magst du auch das bunte Ding?,Sat Oct 19 2019 10:47:03 GMT+0100 (British Summer Time),NA,NA,q_f_geschenk.wav,NA,1,images/chest01.jpg,NA,NA,NA,19854,gift01,NA,chest01,patiochair,ironingboard01,filler,258,1571479300632,filler,"Ja, das ist ein schönes Geschenk.",NA,67,gift01,Keine,images/ironingboard01.jpg,Abitur,,f_geschenk.wav,gift01,Deutsch,59972ad1bbe84800017964e5,gift,NA,weiblich,images/patiochair.jpg,12,1571478423849,"Ja, | das ist | ein schönes Geschenk.",images/gift01.jpg,14.61305,NA,7025|5918,gift01|gift01|gift01,poor_folks_visual_world,"Ja, das ist ein schönes ...",10
42,Wie heißt das bunte Ding?,Sat Oct 19 2019 10:47:03 GMT+0100 (British Summer Time),NA,NA,q_f_zauberwuerfel.wav,NA,1,images/securitycamera.jpg,NA,NA,NA,15316,apron,NA,securitycamera,rubikcube,dishrack,filler,233,1571479300632,filler,Das ist ein Zauberwürfel.,NA,67,rubikcube,Keine,images/dishrack.jpg,Abitur,,f_zauberwuerfel.wav,rubikcube,Deutsch,59972ad1bbe84800017964e5,Rubiks-cube,NA,weiblich,images/rubikcube.jpg,13,1571478423849,Das ist | ein Zauberwürfel.,images/apron.jpg,14.61305,NA,9464,rubikcube|rubikcube,poor_folks_visual_world,Das ist ein ...,6
42,Ist das ein Bild von einem Messer?,Sat Oct 19 2019 10:47:03 GMT+0100 (British Summer Time),knife03.jpg,actually,q_r_messer.wav,sword,1,images/sword01.jpg,das,Schwert,3,21879,bikewheel,das,Schwert,candelabra,Messer,reliable,135,1571479300632,critical,Das ist eigentlich ein Bild von einem Schwert.,Messer,67,Schwert,Keine,images/knife03.jpg,Abitur,,r_e_schwert.wav,Schwert,Deutsch,59972ad1bbe84800017964e5,knife-sword,sword01.jpg,weiblich,images/candelabra.jpg,14,1571478423849,Das ist | eigentlich ein Bild von | einem Schwert.,images/bikewheel.jpg,14.61305,knife,6311|6225,Messer|Schwert|Schwert,poor_folks_visual_world,Das ist eigentlich ein Bild von einem ...,4
42,Magst du auch das gelbe Ding?,Sat Oct 19 2019 10:47:03 GMT+0100 (British Summer Time),NA,NA,q_f_narzisse.wav,NA,1,images/fighterjet.jpg,NA,NA,NA,18797,daffodil,NA,fighterjet,stubbywrench01a,lilypad,filler,234,1571479300632,filler,"Ja, das ist eine schöne Narzisse.",NA,67,daffodil,Keine,images/lilypad.jpg,Abitur,,f_narzisse.wav,daffodil,Deutsch,59972ad1bbe84800017964e5,daffodil,NA,weiblich,images/stubbywrench01a.jpg,15,1571478423849,"Ja, | das ist | eine schöne Narzisse.",images/daffodil.jpg,14.61305,NA,7270|5408,daffodil|daffodil|daffodil,poor_folks_visual_world,"Ja, das ist eine schöne ...",6
42,"Ist das gelbe Ding, das, wovon wir Honig bekommen?",Sat Oct 19 2019 10:47:03 GMT+0100 (British Summer Time),NA,NA,q_f_bienenwabe.wav,NA,1,images/wallclock.jpg,NA,NA,NA,17767,honeycomb,NA,wallclock,machete,windshieldwiper,filler,230,1571479300632,filler,"Ja, das ist eine Bienenwabe.",NA,67,honeycomb,Keine,images/windshieldwiper02.jpg,Abitur,,f_bienenwabe.wav,honeycomb,Deutsch,59972ad1bbe84800017964e5,honeycomb,NA,weiblich,images/machete.jpg,16,1571478423849,"Ja, | das ist | eine Bienenwabe.",images/honeycomb.jpg,14.61305,NA,5233|4984,honeycomb|honeycomb|honeycomb,poor_folks_visual_world,"Ja, das ist eine ...",5
42,"Bedeutet dieses Zeichen, dass man nicht gehen darf?",Sat Oct 19 2019 10:47:03 GMT+0100 (British Summer Time),NA,NA,q_f_zeichen.wav,NA,1,images/donotwalksign.jpg,NA,NA,NA,26523,shoppingcart,NA,donotwalksign,key07,cartonofeggs,filler,217,1571479300632,filler,"Ja, dieses Zeichen bedeutet, dass man warten soll.",NA,67,donotwalksign,Keine,images/cartonofeggs.jpg,Abitur,,f_zeichen.wav,donotwalksign,Deutsch,59972ad1bbe84800017964e5,do-not-walk-sign,NA,weiblich,images/key07.jpg,17,1571478423849,"Ja, | dieses Zeichen bedeutet, | dass man warten soll.",images/shoppingcart.jpg,14.61305,NA,5328|5863,donotwalksign|donotwalksign|donotwalksign,poor_folks_visual_world,"Ja, dieses ... bedeutet, dass man warten soll.",3
42,Ist das ein Bild von einem Schaaf?,Sat Oct 19 2019 10:47:03 GMT+0100 (British Summer Time),sheep.jpg,actually,q_r_schaf.wav,ram,1,images/ram.jpg,der,Bock,1,21822,armadillo,das,Bock,chimpanzee,Schaaf,reliable,117,1571479300632,critical,Das ist eigentlich ein Bild von einem Bock.,Schaaf,67,Bock,Keine,images/sheep.jpg,Abitur,,r_e_bock.wav,Bock,Deutsch,59972ad1bbe84800017964e5,sheep-ram,ram.jpg,weiblich,images/chimpanzee.jpg,18,1571478423849,Das ist | eigentlich ein Bild von | einem Bock.,images/armadillo.jpg,14.61305,sheep,5208|6304,Schaaf|Bock|Bock,poor_folks_visual_world,Das ist eigentlich ein Bild von einem ...,2
42,Ist das eine Geige?,Sat Oct 19 2019 10:47:03 GMT+0100 (British Summer Time),NA,NA,q_f_cello.wav,NA,1,images/coffeemachine.jpg,NA,NA,NA,33523,football,NA,coffeemachine,cello,towelrack,filler,228,1571479300632,filler,"Nein, das hier ist größer. Das ist ein Cello.",NA,67,cello,Keine,images/towelrack.jpg,Abitur,,f_cello.wav,cello,Deutsch,59972ad1bbe84800017964e5,cello,NA,weiblich,images/cello.jpg,19,1571478423849,"Nein, | das hier ist größer. | Das ist | ein Cello.",images/football.jpg,14.61305,NA,13792|8609|5237,cello|cello|cello|cello,poor_folks_visual_world,"Nein, das hier ist größer. Das ist ein ...",5
42,Ist das ein Bild von einem Topf?,Sat Oct 19 2019 10:47:03 GMT+0100 (British Summer Time),cookingpot.jpg,indeed,q_r_topf.wav,mug,1,images/cookingpot.jpg,der,Becher,3,21622,gastank,der,Topf,missile,Becher,reliable,31,1571479300632,critical,Das ist tatsächlich ein Bild von einem Topf.,Topf,67,Topf,Keine,images/mug05.jpg,Abitur,,r_t_topf.wav,Topf,Deutsch,59972ad1bbe84800017964e5,pot-mug,mug05.jpg,weiblich,images/missile.jpg,20,1571478423849,Das ist | tatsächlich ein Bild von | einem Topf.,images/gastank.jpg,14.61305,pot,4968|6775,Topf|Topf|Topf,poor_folks_visual_world,Das ist tatsächlich ein Bild von einem ...,4
42,Ist das etwas was man auf Hausdächern sieht?,Sat Oct 19 2019 10:47:03 GMT+0100 (British Summer Time),NA,NA,q_f_wetterfahne.wav,NA,1,images/tree.jpg,NA,NA,NA,19102,coathook,NA,tree,pipe,weathervane,filler,224,1571479300632,filler,"Ja, das nennt sich Wetterfahne. ",NA,67,weathervane,Keine,images/weathervane.jpg,Abitur,,f_wetterfahne.wav,weathervane,Deutsch,59972ad1bbe84800017964e5,weather-vane,NA,weiblich,images/pipe.jpg,21,1571478423849,"Ja, | das nennt sich | Wetterfahne. ",images/coathook.jpg,14.61305,NA,4927|5215,weathervane|weathervane|weathervane,poor_folks_visual_world,"Ja, das nennt sich ...",4
42,Ist das ein Messer?,Sat Oct 19 2019 10:47:03 GMT+0100 (British Summer Time),NA,NA,q_f_taschenmesser.wav,NA,1,images/swissarmyknife01a.jpg,NA,NA,NA,16613,wheat,NA,swissarmyknife01a,rockingchair,litterbox,filler,231,1571479300632,filler,"Ja, das ist ein schweizer Taschenmesser.",NA,67,swissarmyknife01a,Keine,images/litterbox.jpg,Abitur,,f_schweizertaschenmesser.wav,swissarmyknife01a,Deutsch,59972ad1bbe84800017964e5,swiss-army-knife,NA,weiblich,images/rockingchair.jpg,22,1571478423849,"Ja, | das ist | ein schweizer Taschenmesser.",images/wheat.jpg,14.61305,NA,5392|4631,swissarmyknife01a|swissarmyknife01a|swissarmyknife01a,poor_folks_visual_world,"Ja, das ist ein schweizer ...",6
42,Ist das ein Bild von einem Turm?,Sat Oct 19 2019 10:47:03 GMT+0100 (British Summer Time),tower.jpg,indeed,q_r_turm.wav,wind-turbine,1,images/gasburner.jpg,das,Windrad,1,18797,Turm,der,gasburner,Windrad,martiniglass01b,reliable,41,1571479300632,critical,Das ist tatsächlich ein Bild von einem Turm.,Turm,67,Turm,Keine,images/martiniglass01b.jpg,Abitur,,r_t_turm.wav,Turm,Deutsch,59972ad1bbe84800017964e5,tower-wind-turbine,windturbine.jpg,weiblich,images/windturbine.jpg,23,1571478423849,Das ist | tatsächlich ein Bild von | einem Turm.,images/tower.jpg,14.61305,tower,5105|5231,Turm|Turm|Turm,poor_folks_visual_world,Das ist tatsächlich ein Bild von einem ...,5
42,Magst du auch das gelbe Ding?,Sat Oct 19 2019 10:47:03 GMT+0100 (British Summer Time),NA,NA,q_f_schulbus.wav,NA,1,images/schoolbus.jpg,NA,NA,NA,21614,cleaver02,NA,schoolbus,worldmap,bucket02,filler,223,1571479300632,filler,"Ja, das ist ein schöner Schulbus.",NA,67,schoolbus,Keine,images/bucket02.jpg,Abitur,,f_schulbus.wav,schoolbus,Deutsch,59972ad1bbe84800017964e5,school-bus,NA,weiblich,images/worldmap.jpg,24,1571478423849,"Ja, | das ist | ein schöner Schulbus.",images/cleaver02.jpg,14.61305,NA,6137|5567,schoolbus|schoolbus|schoolbus,poor_folks_visual_world,"Ja, das ist ein schöner ...",4
42,"Magst du auch das Ding, was wie ein Pferd aussieht?",Sat Oct 19 2019 10:47:03 GMT+0100 (British Summer Time),NA,NA,q_f_springerschach.wav,NA,1,images/bassguitar.jpg,NA,NA,NA,18884,aluminiumfoil,NA,bassguitar,chessknight03a,visor,filler,243,1571479300632,filler,"Ja, das ist ein Springer im Schach.",NA,67,chessknight03a,Keine,images/visor.jpg,Abitur,,f_springerschach.wav,chessknight03a,Deutsch,59972ad1bbe84800017964e5,chess-knight,NA,weiblich,images/chessknight03a.jpg,25,1571478423849,"Ja, | das ist | ein Springer im Schach.",images/aluminiumfoil.jpg,14.61305,NA,5623|5256,chessknight03a|chessknight03a|chessknight03a,poor_folks_visual_world,"Ja, das ist ein ...",8
42,Benutzt man das hier für Blätter?,Sat Oct 19 2019 10:47:03 GMT+0100 (British Summer Time),NA,NA,q_f_harke.wav,NA,1,images/busshelter.jpg,NA,NA,NA,24909,megaphone,NA,busshelter,bowrake,dresser02,filler,249,1571479300632,filler,"Ja, das nennt sich Harke. ",NA,67,bowrake,Keine,images/dresser02.jpg,Abitur,,f_harke.wav,bowrake,Deutsch,59972ad1bbe84800017964e5,rake,NA,weiblich,images/bowrake.jpg,26,1571478423849,"Ja, | das nennt sich | Harke. ",images/megaphone.jpg,14.61305,NA,4912|8239,megaphone|megaphone|bowrake,poor_folks_visual_world,"Ja, das nennt sich ...",9
42,Ist das ein Bild von einem Nilpferd?,Sat Oct 19 2019 10:47:03 GMT+0100 (British Summer Time),hippopotamus.jpg,actually,q_r_nilpferd.wav,rhinoceros,1,images/sealion.jpg,das,Nashorn,4,21734,Nilpferd,das,sealion,cedarwaxwing,Nashorn,reliable,104,1571479300632,critical,Das ist eigentlich ein Bild von einem Nashorn.,Nilpferd,67,Nashorn,Keine,images/rhinoceros02.jpg,Abitur,,r_e_nashorn.wav,Nashorn,Deutsch,59972ad1bbe84800017964e5,hippopotamus-rhinoceros,rhinoceros02.jpg,weiblich,images/cedarwaxwing.jpg,27,1571478423849,Das ist | eigentlich ein Bild von | einem Nashorn.,images/hippopotamus.jpg,14.61305,hippopotamus,5824|5887,Nilpferd|Nashorn|Nashorn,poor_folks_visual_world,Das ist eigentlich ein Bild von einem ...,1
42,"Wie heißt das gelbe Ding, was man werfen kann?",Sat Oct 19 2019 10:47:03 GMT+0100 (British Summer Time),NA,NA,q_f_frisbee.wav,NA,1,images/trailer.jpg,NA,NA,NA,12596,shipinabottle,NA,trailer,frisbee,ferry,filler,219,1571479300632,filler,Das ist eine Frisbee. ,NA,67,frisbee,Keine,images/ferry.jpg,Abitur,,f_frisbee.wav,frisbee,Deutsch,59972ad1bbe84800017964e5,frisbee,NA,weiblich,images/frisbee.jpg,28,1571478423849,Das ist | eine Frisbee. ,images/shipinabottle.jpg,14.61305,NA,5567,frisbee|frisbee,poor_folks_visual_world,Das ist eine ...,4
15,Wie heißt das große gelbe Ding?,Sat Oct 19 2019 08:16:38 GMT+0200 (CEST),NA,NA,q_f_bulldozer.wav,NA,1,images/bust.jpg,NA,NA,NA,16969,bulldozer,NA,bust,handbrush02,fireplace,filler,256,1571465918201,filler,Das ist ein Bulldozer.,NA,27,bulldozer,,images/fireplace.jpg,Universitärer Abschluss,,f_bulldozer.wav,bulldozer,Deutsch,5d0f89123382180001624f48,bulldozer,NA,weiblich,images/handbrush02.jpg,1,1571465798040,Das ist | ein Bulldozer.,images/bulldozer.jpg,2.002683333333333,NA,7778,bulldozer|bulldozer,poor_folks_visual_world_training,Das ist ein ...,10
15,"Findest du auch, dass das Schwarze gemütlich aussieht?",Sat Oct 19 2019 08:16:38 GMT+0200 (CEST),NA,NA,q_f_stuhl.wav,NA,1,images/gravyboat.jpg,NA,NA,NA,12767,officechair03,NA,gravyboat,crosscountryski,diploma02,filler,226,1571465918201,filler,"Ja, der Stuhl sieht sehr gemütlich aus.",NA,27,officechair03,,images/diploma02.jpg,Universitärer Abschluss,,f_stuhl.wav,officechair03,Deutsch,5d0f89123382180001624f48,office-chair,NA,weiblich,images/crosscountryski.jpg,2,1571465798040,"Ja, | der Stuhl sieht | sehr gemütlich aus.",images/officechair03.jpg,2.002683333333333,NA,3248|3933,officechair03|officechair03|officechair03,poor_folks_visual_world_training,"Ja, der ... sieht sehr gemütlich aus.",5
15,Ist das ein Spülbecken?,Sat Oct 19 2019 08:16:38 GMT+0200 (CEST),NA,NA,q_f_wasserhahn.wav,NA,1,images/steamroller.jpg,NA,NA,NA,13926,flowerwreath,NA,steamroller,faucet,pin,filler,257,1571465918201,filler,"Nein, das ist ein Wasserhahn.",NA,27,faucet,,images/pin.jpg,Universitärer Abschluss,,f_wasserhahn.wav,faucet,Deutsch,5d0f89123382180001624f48,faucet,NA,weiblich,images/faucet.jpg,1,1571465798040,"Nein, | das ist | ein Wasserhahn.",images/flowerwreath.jpg,2.002683333333333,NA,3186|3154,pin|pin|faucet,poor_folks_visual_world,"Nein, das ist ein ...",10
16,Ist das ein Fisch?,Sat Oct 19 2019 08:19:20 GMT+0200 (Mitteleuropäische Sommerzeit),NA,NA,q_f_wal.wav,NA,1,images/caribou02.jpg,NA,NA,NA,18226,scorpion,NA,caribou,asianelephant,whaleshark,filler,209,1571466093921,filler,"Nein, das ist ein Waal.",NA,27,whaleshark,,images/whaleshark.jpg,Universitärer Abschluss,,f_wal.wav,whaleshark,deutsch,5bcef183387fb5000148a75c,whale,NA,männlich,images/asianelephant.jpg,1,1571465960211,"Nein, | das ist | ein Waal.",images/scorpion.jpg,2.2285,NA,3051|2833,scorpion|scorpion|whaleshark,poor_folks_visual_world_training,"Nein, das ist ein ...",2
16,Ist das ein Pferd?,Sat Oct 19 2019 08:19:20 GMT+0200 (Mitteleuropäische Sommerzeit),NA,NA,q_f_elch.wav,NA,1,images/swordfish.jpg,NA,NA,NA,10627,moose,NA,swordfish,muskox,pigeon,filler,203,1571466093921,filler,"Nein, das ist eine Elch.",NA,27,moose,,images/pigeon.jpg,Universitärer Abschluss,,f_elch.wav,moose,deutsch,5bcef183387fb5000148a75c,moose,NA,männlich,images/muskox.jpg,2,1571465960211,"Nein, | das ist | eine Elch.",images/moose.jpg,2.2285,NA,2130|2044,moose|moose|moose,poor_folks_visual_world_training,"Nein, das ist eine ...",1
16,"Findest du auch, dass das Schwarze gemütlich aussieht?",Sat Oct 19 2019 08:19:20 GMT+0200 (Mitteleuropäische Sommerzeit),NA,NA,q_f_stuhl.wav,NA,1,images/gravyboat.jpg,NA,NA,NA,11786,officechair03,NA,gravyboat,crosscountryski,diploma02,filler,226,1571466093921,filler,"Ja, der Stuhl sieht sehr gemütlich aus.",NA,27,officechair03,,images/diploma02.jpg,Universitärer Abschluss,,f_stuhl.wav,officechair03,deutsch,5bcef183387fb5000148a75c,office-chair,NA,männlich,images/crosscountryski.jpg,1,1571465960211,"Ja, | der Stuhl sieht | sehr gemütlich aus.",images/officechair03.jpg,2.2285,NA,3394|1586,officechair03|officechair03|officechair03,poor_folks_visual_world,"Ja, der ... sieht sehr gemütlich aus.",5
18,Magst du auch den Zug?,Sat Oct 19 2019 08:25:46 GMT+0200 (Mitteleuropäische Sommerzeit),NA,NA,q_f_lokomotive.wav,NA,1,images/bathtub.jpg,NA,NA,NA,25944,fluorescentlightbulb,NA,bathtub,locomotive,golfbag,filler,251,1571466480143,filler,"Ja, das ist eine schöne Lokomotive. ",NA,22,locomotive,,images/golfbag.jpg,Hochschulabschluss,,f_lokomotive.wav,locomotive,deutsch,5cfceedaac238700182fd78b,locomotive,NA,weiblich,images/locomotive.jpg,1,1571466346812,"Ja, | das ist | eine schöne Lokomotive. ",images/fluorescentlightbulb.jpg,2.222183333333333,NA,7809|7000,locomotive|locomotive|locomotive,poor_folks_visual_world_training,"Ja, das ist eine schöne ...",9
18,Ist das ein Pferd?,Sat Oct 19 2019 08:25:46 GMT+0200 (Mitteleuropäische Sommerzeit),NA,NA,q_f_elch.wav,NA,1,images/swordfish.jpg,NA,NA,NA,26191,moose,NA,swordfish,muskox,pigeon,filler,203,1571466480143,filler,"Nein, das ist eine Elch.",NA,22,moose,,images/pigeon.jpg,Hochschulabschluss,,f_elch.wav,moose,deutsch,5cfceedaac238700182fd78b,moose,NA,weiblich,images/muskox.jpg,2,1571466346812,"Nein, | das ist | eine Elch.",images/moose.jpg,2.222183333333333,NA,6006|8982,moose|moose|moose,poor_folks_visual_world_training,"Nein, das ist eine ...",1
18,Benutzt man das hier um Waffeln zu machen?,Sat Oct 19 2019 08:25:46 GMT+0200 (Mitteleuropäische Sommerzeit),NA,NA,q_f_waffeleisen.wav,NA,1,images/wafflemaker.jpg,NA,NA,NA,12338,chandelier,NA,wafflemaker,scooter,flower01,filler,248,1571466480143,filler,"Ja, das ist ein Waffeleisen.",NA,22,wafflemaker,,images/flower01.jpg,Hochschulabschluss,,f_waffeleisen.wav,wafflemaker,deutsch,5cfceedaac238700182fd78b,waffle-maker,NA,weiblich,images/scooter.jpg,1,1571466346812,"Ja, | das ist | ein Waffeleisen.",images/chandelier.jpg,2.222183333333333,NA,2167|2205,wafflemaker|wafflemaker|wafflemaker,poor_folks_visual_world,"Ja, das ist ein ...",8
19,Magst du auch den Zug?,Sat Oct 19 2019 08:25:01 GMT+0200 (Mitteleuropäische Sommerzeit),NA,NA,q_f_lokomotive.wav,NA,1,images/bathtub.jpg,NA,NA,NA,44067,fluorescentlightbulb,NA,bathtub,locomotive,golfbag,filler,251,1571466494424,filler,"Ja, das ist eine schöne Lokomotive. ",NA,40,locomotive,,images/golfbag.jpg,Universitärer Abschluss,,f_lokomotive.wav,locomotive,Deutsch (und Spanisch),5a1542e20fff620001a6d2dc,locomotive,NA,männlich,images/locomotive.jpg,1,1571466301593,"Ja, | das ist | eine schöne Lokomotive. ",images/fluorescentlightbulb.jpg,3.21385,NA,17222|10600,locomotive|locomotive|locomotive,poor_folks_visual_world_training,"Ja, das ist eine schöne ...",9
19,Wie heißt das rote Ding?,Sat Oct 19 2019 08:25:01 GMT+0200 (Mitteleuropäische Sommerzeit),NA,NA,q_f_rohrzange.wav,NA,1,images/pipewrench.jpg,NA,NA,NA,20050,portapotty,NA,pipewrench,flugglehorn,jeep,filler,253,1571466494424,filler,Das nennt sich Rohrzange.,NA,40,pipewrench,,images/jeep.jpg,Universitärer Abschluss,,f_rohrzange.wav,pipewrench,Deutsch (und Spanisch),5a1542e20fff620001a6d2dc,pipe-wrench,NA,männlich,images/flugglehorn.jpg,2,1571466301593,Das nennt sich | Rohrzange.,images/portapotty.jpg,3.21385,NA,8107,pipewrench|pipewrench,poor_folks_visual_world_training,Das nennt sich ...,9
19,Ist das eine Gitarre?,Sat Oct 19 2019 08:25:01 GMT+0200 (Mitteleuropäische Sommerzeit),NA,NA,q_f_gitarre.wav,NA,1,images/smartboard.jpg,NA,NA,NA,22671,alarmsystem,NA,smartboard,toyanimal05,electricguitar01,filler,247,1571466494424,filler,"Ja, das ist eine Gitarre.",NA,40,electricguitar01,,images/electricguitar01.jpg,Universitärer Abschluss,,f_gitarre.wav,electricguitar01,Deutsch (und Spanisch),5a1542e20fff620001a6d2dc,guitar,NA,männlich,images/toyanimal05.jpg,1,1571466301593,"Ja, | das ist | eine Gitarre.",images/alarmsystem.jpg,3.21385,NA,8040|6601,electricguitar01|electricguitar01|electricguitar01,poor_folks_visual_world,"Ja, das ist eine ...",8
22,Ist das ein Spülbecken?,Sat Oct 19 2019 08:36:55 GMT+0200 (CEST),NA,NA,q_f_wasserhahn.wav,NA,1,images/steamroller.jpg,NA,NA,NA,19222,flowerwreath,NA,steamroller,faucet,pin,filler,257,1571467085446,filler,"Nein, das ist ein Wasserhahn.",NA,31,faucet,,images/pin.jpg,Universitärer Abschluss,,f_wasserhahn.wav,faucet,Deutsch,59e6ed442f63d30001c8fa22,faucet,NA,weiblich,images/faucet.jpg,1,1571467015808,"Nein, | das ist | ein Wasserhahn.",images/flowerwreath.jpg,1.1606333333333334,NA,3876|5103,pin|pin|faucet,poor_folks_visual_world_training,"Nein, das ist ein ...",10
22,Magst du auch das gelbe Ding?,Sat Oct 19 2019 08:36:55 GMT+0200 (CEST),NA,NA,q_f_schulbus.wav,NA,1,images/schoolbus.jpg,NA,NA,NA,7827,cleaver02,NA,schoolbus,worldmap,bucket02,filler,223,1571467085446,filler,"Ja, das ist ein schöner Schulbus.",NA,31,schoolbus,,images/bucket02.jpg,Universitärer Abschluss,,f_schulbus.wav,schoolbus,Deutsch,59e6ed442f63d30001c8fa22,school-bus,NA,weiblich,images/worldmap.jpg,2,1571467015808,"Ja, | das ist | ein schöner Schulbus.",images/cleaver02.jpg,1.1606333333333334,NA,1927|1903,schoolbus|schoolbus|schoolbus,poor_folks_visual_world_training,"Ja, das ist ein schöner ...",4
22,Wie heißt das bunte Tier?,Sat Oct 19 2019 08:36:55 GMT+0200 (CEST),NA,NA,q_f_pfau.wav,NA,1,images/pugdog.jpg,NA,NA,NA,5765,swallow,NA,pugdog,peacock,seaturtle,filler,211,1571467085446,filler,Das ist ein Pfau.,NA,31,peacock,,images/seaturtle.jpg,Universitärer Abschluss,,f_pfau.wav,peacock,Deutsch,59e6ed442f63d30001c8fa22,peacock,NA,weiblich,images/peacock.jpg,1,1571467015808,Das ist | ein Pfau.,images/swallow.jpg,1.1606333333333334,NA,1781,peacock|peacock,poor_folks_visual_world,Das ist ein ...,2
26,Was ist das für ein Tier mit dem seltsamen Kopf?,Sat Oct 19 2019 11:39:37 GMT+0200 (Mitteleuropäische Sommerzeit),NA,NA,q_f_tintenfisch.wav,NA,1,images/cuttlefish.jpg,NA,NA,NA,14682,mouse,NA,cuttlefish,kingfisher,grizzly,filler,202,1571478363324,filler,Das ist ein Tintenfisch.,NA,25,cuttlefish,,images/grizzly.jpg,,,f_tintenfisch.wav,cuttlefish,deutsch,5caa1d2a4be4c60001efca92,cuttlefish,NA,weiblich,images/kingfisher.jpg,1,1571477977630,Das ist | ein Tintenfisch.,images/mouse.jpg,6.428233333333333,NA,5967,cuttlefish|cuttlefish,poor_folks_visual_world_training,Das ist ein ...,1
26,Ist das etwas was man auf Hausdächern sieht?,Sat Oct 19 2019 11:39:37 GMT+0200 (Mitteleuropäische Sommerzeit),NA,NA,q_f_wetterfahne.wav,NA,1,images/tree.jpg,NA,NA,NA,21478,coathook,NA,tree,pipe,weathervane,filler,224,1571478363324,filler,"Ja, das nennt sich Wetterfahne. ",NA,25,weathervane,,images/weathervane.jpg,,,f_wetterfahne.wav,weathervane,deutsch,5caa1d2a4be4c60001efca92,weather-vane,NA,weiblich,images/pipe.jpg,2,1571477977630,"Ja, | das nennt sich | Wetterfahne. ",images/coathook.jpg,6.428233333333333,NA,5215|2768,weathervane|weathervane|weathervane,poor_folks_visual_world_training,"Ja, das nennt sich ...",4
